index,time,acc x,acc y,acc z,gyro x,gyro y,gyro z,mag x,mag y,mag z
0,0,0.051971435546875,0.03265380859375,-0.944976806640625,-0.03280188888311386,-0.39820730686187744,0.047569382935762405
1,0.049,0.0048065185546875,-0.0027008056640625,-1.0427703857421875,-0.18282601237297058,0.00866406224668026,-0.0030397321097552776
2,0.099,0.034637451171875,0.0092620849609375,-0.9999237060546875,-0.027285683900117874,-0.026266224682331085,-0.03371189162135124
3,0.149,0.037994384765625,0.008209228515625,-0.9820404052734375,-0.050385408103466034,-0.03947017714381218,-0.011318168602883816
4,0.199,0.0489349365234375,0.0185394287109375,-1.001251220703125,-0.0591549314558506,-0.07955847680568695,-0.02587101235985756
5,0.249,0.034423828125,0.019622802734375,-0.988067626953125,-0.08441288769245148,-0.038065358996391296,0.012794891372323036
6,0.299,0.02880859375,0.0279083251953125,-1.0250244140625,-0.08441288769245148,-0.038065358996391296,0.012794891372323036
7,0.348,0.0136566162109375,0.0344085693359375,-1.0011138916015625,-0.0035888757556676865,0.09437257796525955,0.04577014967799187
8,0.398,0.0226898193359375,0.01788330078125,-0.98956298828125,-0.04951508715748787,-0.0158292967826128,-0.005310609471052885
9,0.448,0.0202484130859375,0.0337677001953125,-1.0010833740234375,-0.1321132928133011,0.058096326887607574,-0.0332234688103199
10,0.498,0.032257080078125,0.0328216552734375,-1.0042724609375,-0.10158707946538925,-0.05437455698847771,0.003099120454862714
11,0.548,0.030670166015625,0.026397705078125,-1.0326690673828125,-0.16239796578884125,-0.05758686363697052,-0.08324215561151505
12,0.598,0.0553436279296875,0.08660888671875,-1.0407257080078125,-0.16239796578884125,-0.05758686363697052,-0.08324215561151505
13,0.647,0.0240936279296875,0.0621490478515625,-1.05096435546875,-0.04225983843207359,-0.11827843636274338,0.12651000916957855
14,0.697,0.043792724609375,0.0822906494140625,-0.919921875,-0.39579421281814575,-0.5501094460487366,0.2119617909193039
15,0.747,-0.023101806640625,0.07928466796875,-1.0335693359375,-0.9114053845405579,-0.36067163944244385,0.07126698642969131
16,0.797,-0.02764892578125,0.149505615234375,-1.1009063720703125,-0.41096916794776917,-0.029518743976950645,0.1775425672531128
17,0.847,-0.031646728515625,0.1330108642578125,-1.0357666015625,0.2167576104402542,0.28817880153656006,0.1743646115064621
18,0.897,-0.0297088623046875,0.107269287109375,-1.0020599365234375,0.14272598922252655,0.1125827357172966,-0.013740313239395618
19,0.946,-0.0044708251953125,0.12176513671875,-1.021881103515625,0.17960891127586365,-0.02183632366359234,-0.12418932467699051
20,0.996,-0.0006256103515625,0.1336212158203125,-1.026214599609375,0.21968255937099457,0.01449771597981453,0.03775057569146156
21,1.046,-0.0042572021484375,0.0980987548828125,-0.9898834228515625,0.21968255937099457,0.01449771597981453,0.03775057569146156
22,1.096,0.00439453125,0.1219024658203125,-1.02899169921875,0.366790771484375,-0.11167912930250168,0.07547292113304138
23,1.146,-0.0287933349609375,0.056640625,-0.9902496337890625,0.2465200275182724,0.0501374676823616,0.0759086161851883
24,1.196,-0.00518798828125,0.063995361328125,-0.9620819091796875,0.018446652218699455,0.039146870374679565,0.01387240644544363
25,1.245,0.0014495849609375,0.084808349609375,-1.03143310546875,0.1313641518354416,0.02737889438867569,0.013634852133691311
26,1.295,0.0146026611328125,0.0614013671875,-0.991485595703125,-0.03021036647260189,0.37051281332969666,0.0629051923751831
27,1.345,0.0335845947265625,0.0719146728515625,-0.958251953125,-0.32724738121032715,0.19213908910751343,0.23337626457214355
28,1.395,-0.0120849609375,0.0417327880859375,-1.029998779296875,0.044014595448970795,0.19706273078918457,0.10966790467500687
29,1.445,0.0005035400390625,0.05291748046875,-1.001861572265625,-0.02466539852321148,0.1375943422317505,0.031868718564510345
30,1.495,0.020538330078125,0.06427001953125,-0.976837158203125,-0.15124277770519257,0.21048933267593384,0.07268165796995163
31,1.544,0.0270538330078125,0.074127197265625,-1.0189208984375,0.13999971747398376,-0.11869735270738602,-0.015777098014950752
32,1.594,0.025726318359375,0.0852813720703125,-0.8982696533203125,0.13999971747398376,-0.11869735270738602,-0.015777098014950752
33,1.644,0.018310546875,0.0602264404296875,-0.9799041748046875,-0.09269025921821594,-0.059486761689186096,-0.10268642753362656
34,1.694,0.04815673828125,0.0594024658203125,-0.9837799072265625,0.17257070541381836,-0.2924286723136902,-0.04429316148161888
35,1.744,0.04461669921875,0.07904052734375,-1.0299835205078125,0.025350363925099373,-0.1601337492465973,-0.054539673030376434
36,1.794,0.022796630859375,0.0796661376953125,-1.054595947265625,0.06442879140377045,-0.08089378476142883,0.10360868275165558
37,1.843,0.000274658203125,0.0449066162109375,-0.997711181640625,0.11241842061281204,-0.07592325657606125,0.05300542712211609
38,1.893,0.0099945068359375,0.03106689453125,-0.982635498046875,-0.03610607236623764,0.06794096529483795,0.04459037259221077
39,1.943,-0.0003814697265625,0.041168212890625,-0.959259033203125,-0.2905346155166626,0.11483923345804214,-0.0065497783944010735
40,1.993,0.050323486328125,0.0911865234375,-1.0131072998046875,-0.11115821450948715,0.06733589619398117,0.05035398527979851
41,2.043,-0.014556884765625,0.03936767578125,-0.8653411865234375,-1.0517174005508423,-0.30553513765335083,0.0871540755033493
42,2.093,-0.030609130859375,0.0994720458984375,-1.208953857421875,-0.4324078857898712,0.017361680045723915,-0.39034005999565125
43,2.142,0.0077362060546875,0.1854400634765625,-1.02154541015625,0.47176966071128845,-0.10326220840215683,-0.563298761844635
44,2.192,0.020721435546875,0.1839752197265625,-0.99835205078125,0.1777992844581604,0.15284334123134613,0.06922594457864761
45,2.242,-0.036041259765625,0.0933685302734375,-1.0437469482421875,0.439108669757843,-0.03840944170951843,-0.10846975445747375
46,2.292,-0.0033111572265625,0.0646209716796875,-0.98480224609375,0.4790334403514862,0.14116324484348297,-0.11234331876039505
47,2.342,0.0049285888671875,0.04803466796875,-0.9735260009765625,0.19279980659484863,-0.01919127069413662,-0.3481587767601013
48,2.392,0.01837158203125,0.068572998046875,-1.0313873291015625,0.382140189409256,-0.05089220777153969,-0.2103542983531952
49,2.441,0.0085906982421875,0.051788330078125,-1.0204620361328125,0.32397088408470154,0.0728054940700531,-0.09462184458971024
50,2.491,0.0180206298828125,0.0621795654296875,-0.9376068115234375,0.2330513596534729,0.03189587965607643,-0.09420053660869598
51,2.541,0.047332763671875,0.0356292724609375,-0.9553985595703125,0.17812925577163696,-0.017980065196752548,0.015685485675930977
52,2.591,0.06488037109375,0.022979736328125,-0.94781494140625,-0.06596995890140533,0.5502245426177979,0.3587842583656311
53,2.641,0.013031005859375,-0.02972412109375,-0.9541015625,-0.039444345980882645,-0.05586406588554382,0.08999566733837128
54,2.691,-0.0632171630859375,-0.04638671875,-1.002532958984375,-0.3336482644081116,-0.2257327288389206,-0.2680642008781433
55,2.74,-0.0417938232421875,-0.025360107421875,-1.1035614013671875,0.02196681685745716,0.06270252913236618,-0.6768197417259216
56,2.79,-0.00445556640625,0.0792083740234375,-0.9172821044921875,-0.422486811876297,-0.09496459364891052,-0.6707815527915955
57,2.84,0.0017547607421875,0.1562042236328125,-1.008514404296875,-0.30455031991004944,-0.3700560927391052,-0.33610105514526367
58,2.89,0.0046539306640625,0.0932464599609375,-1.0938568115234375,0.35843032598495483,0.022646190598607063,0.09153151512145996
59,2.94,-0.01593017578125,-0.0030059814453125,-0.9768524169921875,-0.008667257614433765,0.005335909314453602,0.08434071391820908
60,2.99,0.044586181640625,0.0554962158203125,-1.0679473876953125,0.4942246377468109,-0.15976276993751526,-0.1625196635723114
61,3.039,0.001373291015625,0.018280029296875,-0.986480712890625,0.12718512117862701,-0.120733343064785,0.051116712391376495
62,3.089,-0.024444580078125,-0.0256805419921875,-1.0607452392578125,0.16601000726222992,-0.10812327265739441,-0.1527637094259262
63,3.139,-0.0145263671875,0.016937255859375,-0.9869232177734375,0.380728155374527,-0.04910895600914955,-0.14146284759044647
64,3.189,-0.022613525390625,-0.0193634033203125,-0.896270751953125,-0.007798002101480961,-0.0971747562289238,0.02009328454732895
65,3.239,-0.04705810546875,-0.007843017578125,-0.98114013671875,0.13573919236660004,-0.13206695020198822,-0.042938411235809326
66,3.289,-0.06768798828125,-0.0087738037109375,-1.0029449462890625,0.1826893836259842,-0.10315434634685516,-0.1735621988773346
67,3.338,-0.0309906005859375,0.00274658203125,-0.9115447998046875,0.3844427466392517,-0.0744771659374237,0.07864581048488617
68,3.388,-0.09002685546875,-0.054840087890625,-0.9802398681640625,0.09542026370763779,-0.15075941383838654,-0.028421254828572273
69,3.438,-0.0528717041015625,-0.072906494140625,-0.9590606689453125,0.2568613588809967,-0.08335241675376892,-0.020421652123332024
70,3.488,-0.10400390625,-0.1098785400390625,-0.9830474853515625,-0.05375244468450546,0.0032115059439092875,-0.12173362821340561
71,3.538,-0.01361083984375,-0.0948944091796875,-0.97845458984375,0.4075421988964081,0.024888038635253906,0.0534946508705616
72,3.588,-0.1032257080078125,-0.1214599609375,-0.9565277099609375,-0.25663259625434875,0.07251600921154022,-0.015624233521521091
73,3.637,-0.0252685546875,-0.025726318359375,-1.0926971435546875,-0.09333900362253189,0.06629912555217743,-0.26378583908081055
74,3.687,-0.0638885498046875,-0.0803680419921875,-0.962799072265625,0.16047808527946472,0.0027350664604455233,0.00824088603258133
75,3.737,-0.0297088623046875,-0.0811309814453125,-1.0532989501953125,0.3246188163757324,-0.009038768708705902,-0.11536414176225662
76,3.787,-0.053955078125,-0.1105804443359375,-0.940521240234375,0.002578738844022155,0.14693166315555573,-0.22167886793613434
77,3.837,-0.010528564453125,-0.0482025146484375,-0.9903411865234375,0.20608019828796387,0.06517181545495987,0.17168015241622925
78,3.887,-0.0735321044921875,-0.11065673828125,-1.053466796875,0.19959139823913574,0.2904009222984314,0.09005505591630936
79,3.936,-0.01495361328125,-0.131866455078125,-1.000518798828125,0.16845399141311646,0.2659515142440796,0.05582065507769585
80,3.986,-0.0602264404296875,-0.152435302734375,-0.99566650390625,0.0044014062732458115,0.03419259190559387,-0.021103421226143837
81,4.036,0.0141448974609375,-0.1213836669921875,-1.0411529541015625,0.3703274726867676,0.00872131995856762,-0.0004040015337523073
82,4.086,0.004425048828125,-0.1348724365234375,-0.9843597412109375,0.15647350251674652,-0.010357299819588661,-0.10730195790529251
83,4.136,-0.0069427490234375,-0.1613616943359375,-0.9528961181640625,0.10616318881511688,-0.13835787773132324,-0.08667044341564178
84,4.186,0.0016021728515625,-0.1702728271484375,-1.0012054443359375,0.06727171689271927,-0.27879223227500916,-0.16222219169139862
85,4.235,0.00006103515625,-0.1769256591796875,-0.9658966064453125,-0.06318269670009613,-0.30726781487464905,-0.03425251320004463
86,4.285,-0.046142578125,-0.15911865234375,-1.0225982666015625,0.11579104512929916,-0.19419744610786438,-0.043773312121629715
87,4.335,-0.009307861328125,-0.1443939208984375,-0.92230224609375,-0.13986735045909882,-0.21954220533370972,-0.046725425869226456
88,4.385,-0.049407958984375,-0.16082763671875,-1.031524658203125,0.07778241485357285,0.053532201796770096,-0.005813147872686386
89,4.435,-0.065093994140625,-0.142608642578125,-0.947784423828125,-0.32160040736198425,0.04722477123141289,-0.16079899668693542
90,4.485,-0.0669708251953125,-0.1396942138671875,-1.031707763671875,-0.48130539059638977,0.11035872995853424,-0.23726314306259155
91,4.534,-0.0541229248046875,-0.1137847900390625,-1.011566162109375,0.03596172854304314,0.20350758731365204,-0.040891241282224655
92,4.584,-0.0552825927734375,-0.133453369140625,-1.004302978515625,0.1437385231256485,0.2180689424276352,0.021580925211310387
93,4.634,-0.0025482177734375,-0.123748779296875,-0.9884033203125,0.24057292938232422,0.4691736102104187,0.16648031771183014
94,4.684,-0.0277557373046875,-0.125030517578125,-1.00140380859375,0.10559513419866562,0.2617085576057434,0.07384572923183441
95,4.734,-0.008056640625,-0.16552734375,-1.0009918212890625,-0.041607629507780075,0.19763851165771484,0.015497732907533646
96,4.784,0.0276947021484375,-0.1418609619140625,-1.000030517578125,0.16733679175376892,0.03182797133922577,0.1486469954252243
97,4.833,0.0162200927734375,-0.1492767333984375,-0.9920196533203125,0.16962045431137085,0.046010103076696396,0.10580871999263763
98,4.883,0.029388427734375,-0.18487548828125,-0.9803466796875,0.14631299674510956,0.14672233164310455,0.08827660232782364
99,4.933,0.0276336669921875,-0.1796417236328125,-0.9772186279296875,0.1089392676949501,-0.1021500676870346,0.030954720452427864
100,4.983,0.004547119140625,-0.200836181640625,-0.9744415283203125,-0.16358493268489838,0.16020245850086212,-0.06872446835041046
101,5.033,0.005157470703125,-0.122833251953125,-0.9925994873046875,0.21971265971660614,0.19778577983379364,0.1156027615070343
102,5.083,0.014129638671875,-0.201751708984375,-0.9884490966796875,0.20321837067604065,-0.03772474080324173,0.14295423030853271
103,5.132,0.002899169921875,-0.1882476806640625,-0.9174652099609375,0.07734538614749908,-0.12863121926784515,0.19041867554187775
104,5.182,0.0058441162109375,-0.1734771728515625,-1.0207061767578125,0.19886329770088196,-0.07127178460359573,0.01907329261302948
105,5.232,0.00567626953125,-0.229522705078125,-0.9153900146484375,0.02725132741034031,-0.06125456839799881,-0.1291888803243637
106,5.282,-0.0090789794921875,-0.2172088623046875,-0.9528045654296875,-0.02696823514997959,-0.029788788408041,-0.050340402871370316
107,5.332,0.0011749267578125,-0.173492431640625,-0.988677978515625,0.04845701530575752,0.015872173011302948,-0.08315373957157135
108,5.382,0.0116119384765625,-0.2545928955078125,-0.8897552490234375,-0.10122941434383392,0.2057694047689438,0.004023769870400429
109,5.431,0.004058837890625,-0.1710968017578125,-1.049896240234375,0.08220991492271423,0.3682989180088043,-0.08640147000551224
110,5.481,0.04449462890625,-0.1489715576171875,-0.9421844482421875,-0.010823086835443974,0.5696027278900146,0.04446147382259369
111,5.531,0.04150390625,-0.142181396484375,-0.8583526611328125,0.04386093094944954,0.34228357672691345,0.08347092568874359
112,5.581,0.089691162109375,-0.1764678955078125,-0.857391357421875,0.09873003512620926,0.11623472720384598,-0.036864008754491806
113,5.631,0.1109466552734375,-0.124420166015625,-0.8289947509765625,0.2893226146697998,-0.23532196879386902,0.04650837928056717
114,5.681,0.06817626953125,-0.2998199462890625,-0.7141876220703125,0.179789200425148,-0.4826694428920746,-0.03952610492706299
115,5.73,0.043548583984375,-0.262542724609375,-0.92340087890625,0.05156279355287552,-0.16378946602344513,-0.15482845902442932
116,5.78,0.1013946533203125,-0.222259521484375,-0.801239013671875,-0.12248170375823975,-0.18741117417812347,0.16735491156578064
117,5.83,-0.0580902099609375,-0.2068634033203125,-1.0870208740234375,0.10882075875997543,0.0394081249833107,-0.20230276882648468
118,5.88,0.0704498291015625,-0.23486328125,-0.8732147216796875,-0.20888850092887878,-0.06709541380405426,0.011380219832062721
119,5.93,-0.0102996826171875,-0.186859130859375,-0.9799652099609375,-0.1075429692864418,-0.3729698359966278,0.016506537795066833
120,5.98,-0.0173492431640625,-0.2099609375,-0.992034912109375,-0.023312246426939964,-0.23547057807445526,-0.10714482516050339
121,6.029,0.022796630859375,-0.2207489013671875,-1.056549072265625,-0.0722062885761261,-0.1392311304807663,0.04975450783967972
122,6.079,0.0043487548828125,-0.185882568359375,-0.933197021484375,0.09987679868936539,-0.10453120619058609,0.10226378589868546
123,6.129,-0.0067901611328125,-0.25579833984375,-1.0410308837890625,0.09989676624536514,-0.14988084137439728,0.024823324754834175
124,6.179,0.002105712890625,-0.24755859375,-0.895782470703125,0.13359826803207397,-0.15821067988872528,-0.00692102313041687
125,6.229,-0.033447265625,-0.252105712890625,-0.9168548583984375,-0.029572006314992905,-0.16964203119277954,-0.10987962782382965
126,6.279,-0.068084716796875,-0.3021392822265625,-0.9130706787109375,0.1075216680765152,-0.35017213225364685,0.024634240195155144
127,6.328,-0.0517730712890625,-0.26702880859375,-0.9711761474609375,-0.020205669105052948,-0.04025021567940712,-0.05812908336520195
128,6.378,-0.0608062744140625,-0.252166748046875,-0.9652099609375,0.0680679976940155,-0.08038538694381714,0.24130210280418396
129,6.428,-0.065765380859375,-0.2261505126953125,-1.04754638671875,0.05065705254673958,-0.018084460869431496,0.15483751893043518
130,6.478,-0.062957763671875,-0.234771728515625,-0.960205078125,-0.1897619366645813,0.17368656396865845,-0.047213584184646606
131,6.528,-0.0615081787109375,-0.1737823486328125,-1.0513763427734375,-0.04053570702672005,0.15124037861824036,-0.012386362068355083
132,6.578,-0.0565948486328125,-0.1999664306640625,-0.993988037109375,-0.06479816883802414,0.22369647026062012,-0.0016109461430460215
133,6.627,-0.0349578857421875,-0.181976318359375,-0.980377197265625,0.03693005442619324,0.2785030007362366,0.00003355582884978503
134,6.677,-0.0256500244140625,-0.2073516845703125,-0.93975830078125,0.015535017475485802,0.024020647630095482,-0.00700970645993948
135,6.727,-0.0201873779296875,-0.241607666015625,-0.9553070068359375,-0.022302376106381416,0.0879085510969162,-0.003314836649224162
136,6.777,-0.0226593017578125,-0.3233184814453125,-0.9864349365234375,-0.00564137427136302,0.04808257520198822,-0.014103568159043789
137,6.827,-0.00933837890625,-0.2550201416015625,-0.92388916015625,-0.29030001163482666,0.0022064289078116417,-0.09419547766447067
138,6.877,0.015167236328125,-0.158233642578125,-0.9556427001953125,-0.08951123803853989,-0.313287615776062,-0.09662134945392609
139,6.926,-0.0039825439453125,-0.1965179443359375,-0.9661102294921875,-0.02382170967757702,-0.14681661128997803,-0.10018385946750641
140,6.976,-0.003570556640625,-0.2073516845703125,-0.973968505859375,-0.21670807898044586,-0.21690115332603455,-0.01407640427350998
141,7.026,-0.0417938232421875,-0.2344818115234375,-0.9927215576171875,-0.16981646418571472,-0.08133161067962646,-0.013195962645113468
142,7.076,-0.0009765625,-0.251556396484375,-0.9207000732421875,-0.16981646418571472,-0.08133161067962646,-0.013195962645113468
143,7.126,-0.04132080078125,-0.1648101806640625,-0.8961639404296875,-0.5432361364364624,-0.043231625109910965,0.296250581741333
144,7.176,-0.0424652099609375,-0.14764404296875,-1.0497283935546875,0.013303021900355816,-0.284114807844162,0.0483773872256279
145,7.225,-0.0443115234375,-0.1258544921875,-0.980804443359375,-0.21956484019756317,-0.17669913172721863,-0.0016519587952643633
146,7.275,-0.0416717529296875,-0.107757568359375,-1.043121337890625,-0.115616075694561,-0.1443886011838913,0.10791847854852676
147,7.325,-0.062286376953125,-0.110137939453125,-1.0358734130859375,-0.04113465175032616,-0.026704048737883568,0.0041705104522407055
148,7.375,-0.061614990234375,-0.095123291015625,-1.0271148681640625,0.11131427437067032,0.010459299199283123,0.028910212218761444
149,7.425,-0.021514892578125,-0.095458984375,-0.99053955078125,0.15476827323436737,0.3684999942779541,0.0625549927353859
150,7.475,-0.035919189453125,-0.14996337890625,-0.99993896484375,0.1279638260602951,0.15268728137016296,0.08037180453538895
151,7.524,-0.0381927490234375,-0.1477508544921875,-0.959320068359375,-0.05089513957500458,0.21515412628650665,0.10391814261674881
152,7.574,-0.07122802734375,-0.15625,-1.009246826171875,-0.07600794732570648,-0.007495999336242676,0.037763092666864395
153,7.624,-0.0482177734375,-0.1153717041015625,-1.0060577392578125,0.1260727196931839,-0.0005486111622303724,0.09322768449783325
154,7.674,-0.0185699462890625,-0.1358184814453125,-0.952850341796875,-0.1319066286087036,0.19429278373718262,0.08330447971820831
155,7.724,-0.0240020751953125,-0.135009765625,-0.9712371826171875,-0.2831619381904602,0.2330380380153656,0.018983012065291405
156,7.774,-0.0541534423828125,-0.1400604248046875,-0.9445343017578125,-0.19344110786914825,-0.13994431495666504,0.04020867124199867
157,7.823,-0.0567626953125,-0.1490020751953125,-0.9386138916015625,-0.2510250210762024,-0.398955374956131,0.016019713133573532
158,7.873,-0.0301513671875,-0.0759429931640625,-0.9987945556640625,-0.3852033317089081,0.024167388677597046,0.0890856683254242
159,7.923,-0.0516510009765625,-0.0682525634765625,-1.048431396484375,0.03771115839481354,0.29824021458625793,0.14849039912223816
160,7.973,-0.0466461181640625,-0.06597900390625,-1.0022430419921875,-0.15203027427196503,0.11194464564323425,0.07331469655036926
161,8.023,-0.037200927734375,-0.046051025390625,-1.0464019775390625,0.10246805101633072,0.22741131484508514,0.0968349352478981
162,8.073,-0.017486572265625,-0.051116943359375,-1.0074005126953125,0.23813746869564056,0.052016597241163254,0.11673034727573395
163,8.122,-0.004241943359375,-0.089111328125,-0.9878387451171875,-0.049127332866191864,0.17089185118675232,0.06491374969482422
164,8.172,-0.010986328125,-0.0827789306640625,-1.093963623046875,0.33264026045799255,0.10790702700614929,0.1505519598722458
165,8.222,-0.0018768310546875,-0.1197662353515625,-0.935882568359375,0.030002107843756676,0.2711217701435089,0.08350847661495209
166,8.272,0.000457763671875,-0.1109466552734375,-0.94708251953125,-0.3181508183479309,-0.02719620056450367,-0.009096559137105942
167,8.322,-0.0042877197265625,-0.105621337890625,-0.969268798828125,-0.026923492550849915,-0.0750071331858635,0.055269379168748856
168,8.372,0.0147552490234375,-0.1021575927734375,-0.954833984375,-0.18175914883613586,-0.12565912306308746,0.05172551050782204
169,8.421,-0.00970458984375,-0.0585784912109375,-1.0006866455078125,-0.31393980979919434,-0.07835259288549423,0.0840538889169693
170,8.471,0.017059326171875,-0.0591583251953125,-1.0382232666015625,-0.037825409322977066,0.05402195453643799,0.09071152657270432
171,8.521,0.010894775390625,-0.02001953125,-0.9975128173828125,0.011331750079989433,-0.14626958966255188,0.15370140969753265
172,8.571,0.001708984375,-0.0595703125,-1.0636444091796875,0.18814700841903687,0.017979532480239868,0.21671846508979797
173,8.621,0.0044708251953125,-0.0858612060546875,-0.911773681640625,0.31022071838378906,0.21514825522899628,0.23290355503559113
174,8.671,-0.0074005126953125,-0.11810302734375,-0.8649444580078125,-0.25608929991722107,-0.08850856125354767,0.17890717089176178
175,8.72,-0.0029296875,-0.0637054443359375,-1.055267333984375,-0.4538106322288513,-0.12222018092870712,0.023503461852669716
176,8.77,0.0098724365234375,-0.0150909423828125,-1.0876007080078125,-0.24199798703193665,0.028085164725780487,0.04501328244805336
177,8.82,-0.005859375,-0.03515625,-1.09405517578125,-0.06673109531402588,-0.057315487414598465,0.057861968874931335
178,8.87,-0.0072174072265625,-0.027069091796875,-0.9875335693359375,-0.000014381069377122913,0.28149133920669556,0.03606719151139259
179,8.92,0.0270538330078125,-0.0498809814453125,-0.9772186279296875,0.07373334467411041,-0.007330351043492556,-0.01673290692269802
180,8.97,-0.0283355712890625,-0.0623016357421875,-1.010101318359375,0.24289147555828094,-0.29763782024383545,-0.030610639601945877
181,9.019,0.006500244140625,-0.02935791015625,-1.0572357177734375,-0.14437103271484375,-0.1137302964925766,0.012957876548171043
182,9.069,-0.0553741455078125,-0.045806884765625,-1.0357818603515625,0.20440267026424408,-0.05361901968717575,0.020667728036642075
183,9.119,-0.00921630859375,-0.0371856689453125,-1.0200958251953125,0.015986157581210136,0.1349615454673767,0.005824865773320198
184,9.169,-0.028106689453125,-0.0557098388671875,-1.0117950439453125,0.20416538417339325,0.28019970655441284,0.051058657467365265
185,9.219,-0.0237884521484375,-0.087493896484375,-0.974853515625,0.04466600343585014,0.06392838060855865,-0.029344573616981506
186,9.269,-0.0146484375,-0.0444488525390625,-0.9453582763671875,0.09508470445871353,-0.09673373401165009,-0.019655194133520126
187,9.318,0.001312255859375,-0.07977294921875,-0.9449462890625,0.013674000278115273,0.06889251619577408,-0.05114148184657097
188,9.368,0.00360107421875,-0.070831298828125,-1.01434326171875,-0.004253334365785122,-0.05064213648438454,-0.009375392459332943
189,9.418,-0.01910400390625,-0.096343994140625,-0.989959716796875,0.05663717910647392,-0.27009886503219604,0.03183010220527649
190,9.468,-0.007904052734375,-0.0687255859375,-1.0252685546875,-0.03501071408390999,0.0858192965388298,-0.013515542261302471
191,9.518,-0.0027923583984375,-0.0739288330078125,-0.952484130859375,-0.12767939269542694,0.251423716545105,0.0217116866260767
192,9.568,0.0242156982421875,-0.0440673828125,-1.0442962646484375,-0.02550908923149109,0.17654946446418762,-0.011641209945082664
193,9.617,0.00714111328125,-0.068939208984375,-0.9407196044921875,-0.14719557762145996,0.2710900902748108,-0.0012546151410788298
194,9.667,0.0000152587890625,-0.0837554931640625,-1.0055389404296875,-0.2487613409757614,-0.02665052004158497,-0.08509998023509979
195,9.717,0.0349578857421875,-0.047515869140625,-1.0645751953125,-0.22653354704380035,-0.08525604009628296,-0.10912542045116425
196,9.767,0.04974365234375,-0.03216552734375,-1.092926025390625,-0.06326765567064285,-0.28034937381744385,-0.0357273705303669
197,9.817,0.012939453125,-0.029815673828125,-1.0367431640625,-0.034873560070991516,-0.025705896317958832,0.02901141159236431
198,9.867,0.0016937255859375,-0.04400634765625,-0.972991943359375,-0.037393178790807724,0.1728000044822693,0.034385669976472855
199,9.916,0.044586181640625,0.012908935546875,-0.962188720703125,-0.07047496736049652,0.23740988969802856,0.09177732467651367
200,9.966,0.0155792236328125,0.00128173828125,-0.9632568359375,-0.24098224937915802,-0.036080773919820786,0.14935007691383362
201,10.016,0.0097503662109375,-0.0512847900390625,-1.17498779296875,-0.31221407651901245,0.13720445334911346,-0.08747498691082001
202,10.066,-0.0024261474609375,-0.0360260009765625,-1.233367919921875,-0.0934348776936531,-0.18426251411437988,-0.022051772102713585
203,10.116,0.001678466796875,-0.083984375,-1.45001220703125,-0.0870044082403183,-0.023260848596692085,-0.17833246290683746
204,10.166,-0.000518798828125,-0.05499267578125,-1.33056640625,0.09128570556640625,0.034938011318445206,-0.15879124402999878
205,10.215,0.0458526611328125,0.0048980712890625,-1.1812591552734375,-0.09368094801902771,0.6387876868247986,-0.13233593106269836
206,10.265,0.0390625,0.0506591796875,-0.9720916748046875,-0.000886566296685487,-0.03787201642990112,-0.12645967304706573
207,10.315,0.0462799072265625,0.01251220703125,-1.0050506591796875,0.16262859106063843,-0.38408029079437256,-0.05847715958952904
208,10.365,-0.0093231201171875,-0.012176513671875,-0.9375762939453125,0.17734362185001373,-0.5778571963310242,-0.09451957792043686
209,10.415,0.000457763671875,-0.0091705322265625,-0.9250030517578125,0.027893416583538055,-0.4294064939022064,-0.10384064167737961
210,10.465,-0.016021728515625,0.0140533447265625,-0.9397125244140625,-0.34677714109420776,-0.3772602081298828,-0.24278761446475983
211,10.514,-0.0329437255859375,0.0374298095703125,-1.0047149658203125,-0.3098990023136139,-0.1948419213294983,-0.22585709393024445
212,10.564,-0.0438079833984375,0.0313262939453125,-0.8846588134765625,-0.4640827178955078,-0.21544893085956573,-0.07557598501443863
213,10.614,-0.0545806884765625,0.0402374267578125,-1.067840576171875,-0.15736272931098938,0.2510468661785126,-0.023690948262810707
214,10.664,-0.059814453125,0.0418853759765625,-1.009521484375,0.016325177624821663,0.052812349051237106,-0.09179836511611938
215,10.714,-0.0377044677734375,0.054901123046875,-0.99853515625,0.09628685563802719,-0.12532515823841095,-0.12188968807458878
216,10.764,-0.0421295166015625,0.0600433349609375,-1.0119476318359375,0.0003043993201572448,0.012321647256612778,-0.1391962319612503
217,10.813,-0.0622711181640625,0.046295166015625,-1.0648651123046875,0.32742738723754883,-0.17787545919418335,-0.1532159149646759
218,10.863,-0.0589599609375,0.05535888671875,-0.988067626953125,-0.1420346349477768,-0.1291033923625946,-0.21969693899154663
219,10.913,-0.0671844482421875,0.054443359375,-1.0098724365234375,-0.06298242509365082,-0.06457952409982681,-0.20146574079990387
220,10.963,-0.055511474609375,0.0641937255859375,-0.9940643310546875,0.008744489401578903,0.00029587719473056495,-0.1640206277370453
221,11.013,-0.0447540283203125,0.02166748046875,-0.9672393798828125,0.008744489401578903,0.00029587719473056495,-0.1640206277370453
222,11.063,-0.059295654296875,0.0268096923828125,-0.99700927734375,0.21962769329547882,-0.028026575222611427,0.006666691042482853
223,11.112,-0.0442352294921875,0.012359619140625,-0.9470977783203125,0.11989684402942657,0.09271369129419327,-0.034097250550985336
224,11.162,-0.075897216796875,0.0258941650390625,-1.0471954345703125,0.08778950572013855,0.0367196649312973,-0.07977206259965897
225,11.212,-0.0401458740234375,0.0007171630859375,-0.90826416015625,-0.018864234909415245,0.10789237916469574,-0.014056163839995861
226,11.262,-0.0681915283203125,0.006622314453125,-1.0254364013671875,0.04903145879507065,0.19385576248168945,0.02093990333378315
227,11.312,-0.0509033203125,-0.0167694091796875,-0.94586181640625,-0.11649225652217865,0.4915415048599243,-0.016522251069545746
228,11.362,-0.0421600341796875,-0.013397216796875,-0.9514617919921875,-0.13807398080825806,0.11193505674600601,0.05872057005763054
229,11.411,-0.00616455078125,0.0320281982421875,-1.0350189208984375,-0.13164830207824707,0.3441848158836365,0.04129417613148689
230,11.461,0.006500244140625,0.030731201171875,-0.969024658203125,0.03941158950328827,0.20569483935832977,0.030305175110697746
231,11.511,-0.00128173828125,0.0090484619140625,-1.021636962890625,0.10830170661211014,-0.2094847857952118,0.07278339564800262
232,11.561,0.027252197265625,0.069091796875,-1.03045654296875,0.07377835363149643,0.06566210091114044,0.10493201017379761
233,11.611,0.0009765625,0.032867431640625,-0.973846435546875,0.1075456365942955,0.09976068139076233,0.054658450186252594
234,11.661,-0.0098876953125,0.0163116455078125,-1.039794921875,0.09166387468576431,-0.18132264912128448,-0.018920959904789925
235,11.71,0.038970947265625,0.033111572265625,-0.9874267578125,0.081563301384449,0.2018180787563324,0.02226562425494194
236,11.76,-0.0285186767578125,-0.0064239501953125,-0.966400146484375,0.17883099615573883,-0.08324828743934631,0.022231269627809525
237,11.81,0.0004425048828125,0.0148468017578125,-1.0216217041015625,-0.019813384860754013,-0.01986478455364704,0.003754524514079094
238,11.86,0.0136871337890625,-0.0022735595703125,-0.963592529296875,0.0679585412144661,0.2639773190021515,0.07913023978471756
239,11.91,-0.0009918212890625,0.01678466796875,-0.9896392822265625,0.14685043692588806,0.21524733304977417,0.13897253572940826
240,11.96,0.024017333984375,-0.024810791015625,-0.920684814453125,0.22206635773181915,0.3220163881778717,0.1580096036195755
241,12.009,-0.02752685546875,-0.031280517578125,-0.95001220703125,0.1746053546667099,-0.12171871215105057,0.08664674311876297
242,12.059,0.0464630126953125,-0.0518646240234375,-0.908172607421875,0.10782766342163086,-0.19330714643001556,0.03795190900564194
243,12.109,0.031768798828125,-0.0803070068359375,-0.9754638671875,-0.032278046011924744,-0.3342967629432678,0.09350225329399109
244,12.159,0.0101470947265625,-0.0555267333984375,-1.0262603759765625,-0.016880979761481285,-0.3386600911617279,-0.08002426475286484
245,12.209,-0.0008087158203125,-0.050079345703125,-0.9209442138671875,0.16313140094280243,-0.47181281447410583,-0.01130831427872181
246,12.259,0.0063629150390625,-0.0756378173828125,-0.8534698486328125,-0.04457039758563042,-0.03164394572377205,0.03746641427278519
247,12.308,-0.0569000244140625,-0.1248931884765625,-0.970428466796875,-0.046296924352645874,-0.10802500694990158,-0.04729481041431427
248,12.358,0.02044677734375,-0.0730133056640625,-0.856353759765625,0.0445815809071064,0.12731720507144928,0.2409236580133438
249,12.408,-0.0693206787109375,-0.05889892578125,-1.0091705322265625,-0.03701154887676239,-0.14929866790771484,0.18162812292575836
250,12.458,-0.021331787109375,-0.1143798828125,-0.9487457275390625,0.1097821593284607,0.18985728919506073,0.19696153700351715
251,12.508,-0.0452423095703125,-0.048583984375,-0.9001922607421875,-0.057383663952350616,0.0925898551940918,0.11222800612449646
252,12.558,0.0177459716796875,-0.0359954833984375,-0.7655792236328125,0.10040729492902756,0.07643511891365051,0.18464840948581696
253,12.607,-0.0474395751953125,-0.1096649169921875,-0.8922576904296875,0.004461327567696571,0.0013733921805396676,-0.07367102801799774
254,12.657,-0.000091552734375,-0.0882110595703125,-0.7729339599609375,-0.057431869208812714,0.2775253653526306,0.055146075785160065
255,12.707,-0.0713043212890625,-0.1199493408203125,-0.873626708984375,-0.08038432151079178,-0.18010585010051727,0.046179745346307755
256,12.757,-0.0255279541015625,-0.04449462890625,-0.9615020751953125,-0.19446028769016266,-0.2876642644405365,0.017058080062270164
257,12.807,-0.0682525634765625,-0.0264892578125,-1.01220703125,-0.0874965563416481,-0.19725634157657623,-0.04629506170749664
258,12.857,-0.037109375,-0.0311279296875,-1.0168609619140625,-0.0874965563416481,-0.19725634157657623,-0.04629506170749664
259,12.906,-0.0835418701171875,0.03326416015625,-1.044036865234375,-0.18154822289943695,-0.03622165322303772,-0.08529012650251389
260,12.956,-0.0809783935546875,0.0499420166015625,-1.0604095458984375,-0.07437729835510254,0.04212614893913269,-0.009095227345824242
261,13.006,-0.063507080078125,0.0305938720703125,-1.09283447265625,0.11445840448141098,0.007152451667934656,-0.015312643721699715
262,13.056,-0.050750732421875,0.02984619140625,-0.935333251953125,0.10285394638776779,0.058327753096818924,0.15488198399543762
263,13.106,-0.085845947265625,-0.026397705078125,-1.057769775390625,-0.09371504187583923,-0.20303674042224884,-0.0064744106493890285
264,13.156,-0.0557708740234375,-0.020843505859375,-0.991668701171875,0.0005608617211692035,0.17579446732997894,0.018940402194857597
265,13.205,-0.0463714599609375,-0.0167388916015625,-0.9900665283203125,-0.060270264744758606,0.10188695043325424,0.03798280283808708
266,13.255,-0.067626953125,-0.014495849609375,-1.0435333251953125,0.0417005755007267,-0.08392259478569031,-0.0027196200098842382
267,13.305,-0.0462493896484375,-0.001190185546875,-0.920318603515625,0.08778125047683716,-0.10058439522981644,-0.15402817726135254
268,13.355,-0.063385009765625,-0.074920654296875,-0.9662628173828125,-0.3737879693508148,-0.061354171484708786,-0.046357911080121994
269,13.405,-0.0967559814453125,-0.0238494873046875,-1.0251312255859375,-0.22860947251319885,-0.09660164266824722,0.014369351789355278
270,13.455,-0.0540618896484375,-0.006744384765625,-1.0212860107421875,-0.22860947251319885,-0.09660164266824722,0.014369351789355278
271,13.504,-0.1078948974609375,0.005889892578125,-0.9935302734375,-0.12379224598407745,0.039378564804792404,0.12189874053001404
272,13.554,-0.054718017578125,0.037933349609375,-0.938323974609375,-0.09484075754880905,0.15921282768249512,0.18646948039531708
273,13.604,-0.062286376953125,0.0079498291015625,-0.92645263671875,-0.14453613758087158,0.39881476759910583,0.10211332142353058
274,13.654,-0.064849853515625,-0.0148468017578125,-0.8746795654296875,-0.2958897054195404,-0.08756793290376663,0.0031015174463391304
275,13.704,-0.0405731201171875,-0.0131988525390625,-1.0717315673828125,-0.18467557430267334,-0.20491106808185577,0.041965559124946594
276,13.754,-0.049407958984375,0.0399932861328125,-1.019256591796875,-0.29173117876052856,-0.04778509959578514,0.06874097883701324
277,13.803,-0.051666259765625,0.0911407470703125,-1.0921783447265625,-0.034447986632585526,0.11257527768611908,0.08694661408662796
278,13.853,-0.064666748046875,0.1072998046875,-0.9922943115234375,-0.02845241315662861,-0.004205930046737194,0.0527777262032032
279,13.903,-0.0320892333984375,0.0677337646484375,-1.0399169921875,0.4590786397457123,-0.133164182305336,0.17912501096725464
280,13.953,-0.02142333984375,0.029266357421875,-1.0006561279296875,0.6816978454589844,0.18472005426883698,0.22032491862773895
281,14.003,-0.0297698974609375,0.001739501953125,-0.9658203125,-0.05979781970381737,0.13541854918003082,0.09707888215780258
282,14.052,-0.0457000732421875,0.0311279296875,-1.0248260498046875,-0.3245311975479126,0.025105353444814682,-0.08036541193723679
283,14.102,0.0013275146484375,0.0594329833984375,-1.0196685791015625,-0.26674753427505493,0.04470382258296013,-0.0022391858510673046
284,14.152,-0.0398712158203125,0.0652008056640625,-1.00592041015625,0.05025225132703781,0.06366606056690216,0.025953836739063263
285,14.202,-0.0211029052734375,0.09088134765625,-1.03497314453125,0.08440915495157242,0.08392206579446793,0.02202780358493328
286,14.252,0.0001983642578125,0.0444183349609375,-1.008819580078125,0.08440915495157242,0.08392206579446793,0.02202780358493328
287,14.302,-0.0245513916015625,0.024871826171875,-1.0273590087890625,0.18708732724189758,0.11160854995250702,0.017773138359189034
288,14.351,0.0040435791015625,-0.0106048583984375,-0.9554901123046875,0.06916096061468124,-0.04067179560661316,0.005796902813017368
289,14.401,-0.0211639404296875,-0.0203094482421875,-0.991485595703125,0.17045748233795166,0.029821278527379036,0.1575118601322174
290,14.451,0.01629638671875,-0.0135040283203125,-1.0282440185546875,0.2084946185350418,-0.03314703330397606,0.02611708827316761
291,14.501,0.0116424560546875,0.03912353515625,-0.9961395263671875,-0.18682421743869781,0.12336161732673645,0.0036093820817768574
292,14.551,0.014862060546875,0.0022735595703125,-1.019439697265625,0.2269820123910904,-0.01401621662080288,0.07493282854557037
293,14.601,0.0091094970703125,-0.010955810546875,-0.9030609130859375,-0.15303775668144226,0.17279894649982452,0.03455344960093498
294,14.65,0.0128173828125,0.011260986328125,-0.95465087890625,0.011415373533964157,-0.2449631541967392,0.011975436471402645
295,14.7,0.018402099609375,-0.0061798095703125,-1.045318603515625,0.498590350151062,0.05558815971016884,0.08075875788927078
296,14.75,-0.007110595703125,-0.0214080810546875,-0.9369659423828125,-0.026369022205471992,-0.33752715587615967,0.012346414849162102
297,14.8,-0.0107269287109375,-0.0024566650390625,-1.0853271484375,0.06022712215781212,0.026395654305815697,0.06201703101396561
298,14.85,-0.003662109375,-0.028533935546875,-1.021209716796875,0.2702493369579315,0.1234138160943985,0.09960169345140457
299,14.9,-0.0222930908203125,-0.04833984375,-0.93865966796875,-0.20342741906642914,-0.008743157610297203,0.07809773087501526
300,14.949,-0.0173187255859375,-0.0691986083984375,-1.0459747314453125,0.129429891705513,-0.19646725058555603,-0.0623006597161293
301,14.999,-0.001251220703125,-0.02069091796875,-0.9764404296875,0.07624629884958267,0.21576744318008423,-0.04474776238203049
302,15.049,-0.00836181640625,-0.0356597900390625,-1.0453948974609375,-0.2867438793182373,0.27760496735572815,0.03543495759367943
303,15.099,0.010162353515625,-0.032196044921875,-1.06903076171875,0.16857276856899261,0.39198267459869385,0.04231176897883415
304,15.149,0.0288238525390625,-0.0184783935546875,-0.94390869140625,0.16857276856899261,0.39198267459869385,0.04231176897883415
305,15.199,0.046356201171875,-0.0343017578125,-1.038726806640625,-0.09719233214855194,0.10478366911411285,0.01763172447681427
306,15.248,0.031341552734375,-0.0133056640625,-0.9912109375,0.24621030688285828,0.28523147106170654,0.013738715089857578
307,15.298,0.032958984375,-0.07196044921875,-0.958282470703125,0.040830787271261215,0.21215645968914032,-0.09585489332675934
308,15.348,0.0464935302734375,-0.044036865234375,-0.92205810546875,0.07901838421821594,-0.12750495970249176,-0.04057592153549194
309,15.398,0.0672760009765625,-0.033538818359375,-1.0346832275390625,-0.29745110869407654,-0.18443988263607025,-0.009950635023415089
310,15.448,0.0579986572265625,-0.016357421875,-1.0330047607421875,-0.32293465733528137,-0.24902527034282684,-0.04194691777229309
311,15.498,0.047149658203125,0.0092010498046875,-1.0854034423828125,0.05074680224061012,-0.24275405704975128,-0.03527862951159477
312,15.547,0.033355712890625,0.012969970703125,-0.9963531494140625,-0.16278119385242462,-0.428133487701416,0.006484530866146088
313,15.597,0.006317138671875,-0.0110015869140625,-1.0438385009765625,-0.042763177305459976,-0.339781790971756,0.005062136333435774
314,15.647,-0.0104217529296875,-0.0117034912109375,-1.045501708984375,-0.018725750967860222,-0.003979827743023634,-0.012054266408085823
315,15.697,0.0024871826171875,0.008880615234375,-0.9770355224609375,-0.13042990863323212,0.10734536498785019,0.00315957423299551
316,15.747,-0.0009613037109375,0.002410888671875,-1.0216064453125,-0.023723438382148743,0.018183797597885132,-0.010921357199549675
317,15.797,-0.000885009765625,-0.0030364990234375,-1.03900146484375,-0.050042927265167236,0.08451035618782043,-0.03909413889050484
318,15.846,0.0136566162109375,0.0091400146484375,-1.059051513671875,-0.02335112914443016,-0.0017891116440296173,-0.03873514384031296
319,15.896,-0.0162506103515625,-0.0174560546875,-1.0853271484375,0.0873199924826622,0.11324213445186615,-0.005465338937938213
320,15.946,0.0099029541015625,0.0042877197265625,-0.97052001953125,-0.0019081549253314734,0.12097462266683578,0.017470870167016983
321,15.996,-0.01776123046875,-0.04156494140625,-1.1190185546875,0.003347060875967145,0.2430936098098755,-0.015096128918230534
