index,time,acc x,acc y,acc z,ori x,ori z,punch
0,0,0.158447265625,-0.918182373046875,-0.4871673583984375,-0.4686921954499712,0.1506975092881355,None
1,0.05,0.174468994140625,-0.91119384765625,-0.468414306640625,-0.45719388098537206,-0.16787310506079134,None
2,0.1,0.1386260986328125,-0.8895263671875,-0.482147216796875,-0.47652798808840885,-0.1357423233025002,None
3,0.15,0.204376220703125,-0.8189697265625,-0.4283447265625,-0.4634640219322356,-0.21591657922278396,None
4,0.2,0.2327728271484375,-0.7895965576171875,-0.373565673828125,-0.42766203610421216,-0.2574950232537822,None
5,0.249,0.1352386474609375,-0.8103790283203125,-0.525421142578125,-0.5440233890709271,-0.1386737756617482,None
6,0.299,0.1534271240234375,-0.8273162841796875,-0.609130859375,-0.5929021125554472,-0.14770149032040886,None
7,0.349,0.1519775390625,-0.857391357421875,-0.589019775390625,-0.5662436624244237,-0.14456612902424704,None
8,0.399,0.173828125,-0.82647705078125,-0.553558349609375,-0.5564901044953072,-0.1721401847209734,None
9,0.449,0.180206298828125,-0.8021087646484375,-0.5105743408203125,-0.5369814046195479,-0.18621173548733796,None
10,0.499,0.1614227294921875,-0.802154541015625,-0.515960693359375,-0.5409726579164308,-0.16687475961743103,None
11,0.549,0.118865966796875,-0.83966064453125,-0.58538818359375,-0.5719045442146986,-0.11535284363805275,None
12,0.598,0.1513671875,-0.827301025390625,-0.6023712158203125,-0.5886175498783578,-0.14631918661439167,None
13,0.648,0.1988525390625,-0.8053436279296875,-0.501220703125,-0.5283915620616583,-0.20517246002203487,None
14,0.698,0.1693572998046875,-0.8211212158203125,-0.41363525390625,-0.4498868851721359,-0.18115244999688226,None
15,0.748,0.135406494140625,-0.8287353515625,-0.511199951171875,-0.5249976898835127,-0.13773584236200395,None
16,0.798,0.0669708251953125,-0.8431549072265625,-0.758392333984375,-0.5270719138781025,-0.1423075931276677,None
17,0.848,0.19927978515625,-0.7938079833984375,-0.568359375,-0.5821559328594034,-0.1999934424637543,None
18,0.897,0.2046966552734375,-0.7736053466796875,-0.574249267578125,-0.5960370346105522,-0.20782423360339322,None
19,0.947,0.0885162353515625,-0.8083648681640625,-0.509033203125,-0.5328602935904574,-0.09226431468087293,None
20,0.997,0.1047821044921875,-0.8195343017578125,-0.5479888916015625,-0.5558462008361534,-0.10568923957375137,None
21,1.047,0.119598388671875,-0.8143768310546875,-0.6079559326171875,-0.5982184083537944,-0.11687626120051345,None
22,1.097,0.1471710205078125,-0.7939605712890625,-0.5513916015625,-0.5704168125212723,-0.1505145558924684,None
23,1.147,0.10687255859375,-0.8062591552734375,-0.5667877197265625,-0.5750998551576688,-0.10780786617245622,None
24,1.196,0.1145172119140625,-0.813629150390625,-0.5547637939453125,-0.5633483638127071,-0.11551086792499601,None
25,1.246,0.0928192138671875,-0.829620361328125,-0.5462188720703125,-0.5499087665272353,-0.09304089637968434,None
26,1.296,0.1033172607421875,-0.8234710693359375,-0.568572998046875,-0.5681811290708226,-0.10270012525486578,None
27,1.346,0.1658935546875,-0.7924346923828125,-0.582916259765625,-0.5925512270485046,-0.1662877264243972,None
28,1.396,0.08087158203125,-0.804901123046875,-0.64794921875,-0.6270692926651019,-0.07802691315597611,None
29,1.446,0.0265350341796875,-0.858123779296875,-0.498138427734375,-0.5020397978918616,-0.026733296049626116,None
30,1.496,-0.0166778564453125,-0.8560943603515625,-0.5380859375,-0.5321499115617899,0.01649162751146126,None
31,1.545,-0.0373077392578125,-0.9498291015625,-0.400115966796875,-0.38821187036586036,0.03617408243222963,None
32,1.595,0.0766754150390625,-0.8209075927734375,-0.3512115478515625,-0.39334584437459147,-0.08555915171921498,None
33,1.645,0.30242919921875,-0.6454315185546875,-0.35791015625,-0.48495640538162604,-0.3791802242354941,None
34,1.695,-0.3571319580078125,-1.0046539306640625,-0.545196533203125,-0.48742488774546044,-0.37104884532970456,None
35,1.745,-0.2116546630859375,-0.9036865234375,-0.839508056640625,-0.48088938479720156,-0.3595833083664615,None
36,1.795,-0.1995697021484375,-0.9626922607421875,-0.6610107421875,-0.449733194889742,-0.37342286727381935,None
37,1.844,0.0553741455078125,-0.8530426025390625,-0.273895263671875,-0.30570870854934123,-0.061688244113041975,None
38,1.894,-0.02703857421875,-0.8712158203125,-0.239532470703125,-0.26510310139247323,0.02991161289476022,None
39,1.944,-0.0171356201171875,-0.8620758056640625,-0.1749267578125,-0.19886079079295102,0.01947647484171001,None
40,1.994,-0.2860870361328125,-0.9741363525390625,-0.66510009765625,-0.21551874094618187,0.0037387753291320126,None
41,2.044,-0.12103271484375,-0.95513916015625,-0.6206512451171875,-0.20132150784705408,-0.022497154290963228,None
42,2.094,0.035430908203125,-0.8891754150390625,-0.4772491455078125,-0.47291820820843355,-0.035087760908646286,None
43,2.143,0.1205596923828125,-0.815887451171875,-0.2803192138671875,-0.3249324583576314,-0.13840205034740102,None
44,2.193,0.075531005859375,-0.8350067138671875,-0.2115478515625,-0.24558959999897492,-0.0873501038176452,None
45,2.243,-0.005767822265625,-0.8217620849609375,-0.3334197998046875,-0.3759694881098834,0.006503750894580628,None
46,2.293,-0.103546142578125,-0.9179840087890625,-0.468658447265625,-0.4547007038447548,0.09995913548917391,None
47,2.343,-0.152435302734375,-0.9737701416015625,-0.6755218505859375,-0.4672297963710893,0.10350668436608554,None
48,2.393,0.0104827880859375,-0.9245758056640625,-0.6578826904296875,-0.3892539322762386,0.08581844941733768,None
49,2.443,0.1121063232421875,-0.8073883056640625,-0.3376007080078125,-0.3857726710213495,-0.12706434160588928,None
50,2.492,0.0029754638671875,-1.00262451171875,-0.04742431640625,-0.04724735265857912,-0.002964347904871302,None
51,2.558,-0.1329803466796875,-1.99798583984375,-0.0666961669921875,0.1503051049175963,-0.058511256320106814,None
52,2.608,1.637664794921875,-1.228851318359375,0.5466156005859375,0.43383642771971453,-0.11155113347064426,None
53,2.698,2.56048583984375,0.559783935546875,0.6437225341796875,0.623184041127471,0.024210460843493275,None
54,2.847,-2.3199462890625,-1.1721649169921875,1.1925811767578125,0.6109675600749599,-0.14823947706453502,Straight
55,2.897,-2.093170166015625,1.2745208740234375,0.561920166015625,0.390897714126725,-0.36958992451715655,None
56,2.947,-0.3851776123046875,0.7733917236328125,0.9896240234375,0.04494864379024496,-0.5186592098228441,None
57,2.997,0.6392059326171875,-0.3589935302734375,0.8960418701171875,-0.24964073232534154,-0.6298525745846233,None
58,3.047,0.694122314453125,-0.7997283935546875,0.4371490478515625,-0.406590910630589,-0.7156997182992018,None
59,3.097,1.011932373046875,-0.8297882080078125,0.3509368896484375,-0.5429868150326236,-0.7765128690830778,None
60,3.147,0.7159271240234375,-0.9608154296875,-0.1370697021484375,-0.6453230332596581,-0.7926657823642163,None
61,3.196,0.586456298828125,-1.0663299560546875,-0.3066558837890625,-0.6697532114959438,-0.7953976078159037,None
62,3.246,0.4319915771484375,-1.2175750732421875,-0.363250732421875,-0.6816563673427404,-0.7922754576515572,None
63,3.296,0.156097412109375,-1.30609130859375,-0.781951904296875,-0.6903184432096524,-0.8035845392602862,None
64,3.346,0.3477935791015625,-0.8008880615234375,-0.418609619140625,-0.4632225625529209,-0.35917742934474856,None
65,3.396,0.4468536376953125,-0.4258880615234375,0.0303497314453125,0.07108196697477562,-0.7230112095614258,None
66,3.446,0.47674560546875,-0.1732025146484375,0.181610107421875,0.17467782239800833,-0.7064305892086277,None
67,3.495,0.618804931640625,-0.161041259765625,0.62567138671875,0.25219298461033574,-0.6560790953799814,None
68,3.545,0.06695556640625,-0.802947998046875,0.5373077392578125,0.5561390106437115,-0.06913636395886769,None
69,3.595,-1.2294158935546875,-1.906646728515625,-1.8924713134765625,0.38338809459335993,-0.0117198072635024,None
70,3.665,-0.2613525390625,-1.930908203125,-0.908203125,0.5125036136449737,-0.07033861179738485,None
71,3.715,1.0914764404296875,-1.5204925537109375,-0.6365966796875,0.652703275535144,-0.14782058461127395,None
72,3.765,1.7774505615234375,-0.52337646484375,0.3264923095703125,0.9281833238403608,-0.19854159784864758,None
73,4.024,-1.9835968017578125,1.9744873046875,0.745269775390625,0.8989184865311257,-0.4523309272341683,None
74,4.074,0.1049041748046875,0.0567169189453125,0.04901123046875,0.6567541913704774,-0.6141625295479318,None
75,4.123,0.82720947265625,-0.511566162109375,0.6429901123046875,0.6176810605819719,-0.7071970963717814,Straight
76,4.173,1.2120819091796875,-0.4187774658203125,0.1079559326171875,0.45714806961589666,-0.7322972122277965,None
77,4.223,1.5683441162109375,-0.5914306640625,0.4020538330078125,0.3350978097604083,-0.7322545011380729,None
78,4.273,0.90814208984375,-0.7773895263671875,-0.3154296875,0.2126094435257593,-0.6779249447194267,None
79,4.323,0.2483673095703125,-1.2935333251953125,0.58526611328125,0.26170464556874273,-0.5872500041943812,None
80,4.373,-0.6569671630859375,-1.994720458984375,0.0463409423828125,0.25439278948896343,-0.5318753443723563,None
81,4.422,-0.1600341796875,-2.047027587890625,-0.39013671875,0.19405352579771434,-0.5440791999337404,None
82,4.472,-0.1688690185546875,-1.7623443603515625,-0.25567626953125,0.25317687142642725,-0.5791604508822379,None
83,4.522,0.694915771484375,-1.0113067626953125,0.5413360595703125,0.46007213365757055,-0.6486474914606503,None
84,4.831,-2.2073822021484375,1.5977783203125,0.464752197265625,0.5019907601365066,-0.7857505295098038,None
85,4.881,-0.3493194580078125,0.479705810546875,0.6564178466796875,0.15977019940443934,-0.8819433197148201,Straight
86,4.931,0.8572998046875,-0.175445556640625,0.73126220703125,-0.22732577293285208,-0.9488340489419703,None
87,4.981,0.927764892578125,-0.734130859375,0.497955322265625,-0.5531591119631252,-0.9831364359239237,None
88,5.031,0.9915313720703125,-0.8691864013671875,0.0814361572265625,-0.6832319741562578,-0.9945643844612104,None
89,5.08,0.725982666015625,-1.0004425048828125,-0.176055908203125,-0.7369527731192465,-0.996891901184728,None
90,5.13,0.4136199951171875,-1.146636962890625,-0.159698486328125,-0.7558252014866423,-0.9930305718288361,None
91,5.18,0.5536346435546875,-1.0474090576171875,-0.24090576171875,-0.7807965736720102,-0.9905609074768399,None
92,5.23,-0.129547119140625,-1.99176025390625,-1.1714630126953125,-0.7793691263186731,-0.9878790289383045,None
93,5.28,0.043548583984375,-2.135406494140625,-1.1733551025390625,-0.7008288115236375,-0.9881179487384292,None
94,5.33,1.8092498779296875,-0.1803741455078125,0.137725830078125,-0.5099780487595771,-0.9987933897849444,None
95,5.409,2.3173065185546875,0.6389617919921875,0.2952880859375,-0.18789274708715784,-0.9878956035598735,None
96,5.459,0.062896728515625,2.0072479248046875,0.1494293212890625,0.20971885360024878,-0.9415283281025117,None
97,5.599,-1.6222381591796875,2.2847137451171875,0.0712738037109375,-0.14219782313169763,-0.9914231846072074,None
98,5.649,-0.2977447509765625,0.518951416015625,0.3635711669921875,-0.3730102113769472,-0.9997801482701031,None
99,5.698,0.62615966796875,-0.3491668701171875,0.7295989990234375,-0.6025141531382914,-0.9877935140367674,Straight
100,5.748,1.1632080078125,-0.558837890625,0.6720428466796875,-0.7651145405720554,-0.9570155772758758,None
101,5.798,1.7591094970703125,-0.6358489990234375,0.412872314453125,-0.867142232933086,-0.9367716141768593,None
102,5.848,1.168212890625,-0.555755615234375,-0.1882171630859375,-0.8944626060454729,-0.9512976908622998,None
103,5.898,0.685638427734375,-0.59088134765625,0.19757080078125,0.3171093049968166,-0.7400855222255026,None
104,5.948,0.7891387939453125,-0.6302642822265625,0.5739288330078125,0.34664661256062596,-0.6799344248932673,None
105,5.997,-0.21942138671875,-1.9482879638671875,-0.1407318115234375,0.34571473751258575,-0.5917221998625456,None
106,6.077,0.4293975830078125,-2.0255126953125,0.836822509765625,0.48205895651373265,-0.6224254840060761,None
107,6.127,1.9713134765625,-0.041168212890625,-0.0677032470703125,0.5811660331098435,-0.7306616846173993,None
108,6.346,-1.693450927734375,0.534210205078125,3.980072021484375,0.5968729061914909,-0.8464587067612463,None
109,6.396,-2.02642822265625,1.4037628173828125,-0.363555908203125,0.36281180888483555,-0.9096974756233781,None
110,6.446,-0.158905029296875,0.5768890380859375,0.729583740234375,0.1868815380610917,-0.9532661970388489,Straight
111,6.496,0.38104248046875,-0.1013641357421875,0.8484344482421875,-0.08667414495998053,-0.9763694787828229,None
112,6.546,1.3857879638671875,-0.3775634765625,0.9285430908203125,-0.3374332939994296,-0.996218426883415,None
113,6.596,1.589141845703125,-0.7053375244140625,0.6994781494140625,-0.5200847159926563,-0.9987870490512204,None
114,6.645,0.890655517578125,-0.5300445556640625,0.13958740234375,0.2546673223392536,-0.8516493717470034,None
115,6.695,0.4775390625,-0.791656494140625,-0.1242828369140625,-0.15509129665467675,-0.5119138991959072,None
116,6.745,0.2789154052734375,-0.9997406005859375,0.29046630859375,0.2790042281937111,-0.2587829436419679,None
117,6.795,-0.0011444091796875,-1.38787841796875,0.2154693603515625,0.2685633392906845,-0.21166997080142472,None
118,6.845,-0.35418701171875,-1.5467529296875,0.091339111328125,0.24089305069418643,-0.18345910765828552,None
119,6.895,-0.4049224853515625,-1.8046875,-0.0679779052734375,0.1910410999222597,-0.23724422911864979,None
120,6.944,0.46270751953125,-1.3225860595703125,0.028106689453125,0.15471652386879917,-0.3371374831399258,None
121,7.194,-1.0337677001953125,0.4195709228515625,2.434906005859375,0.23473939395346163,-0.5583219486723598,None
122,7.243,-0.3681640625,-0.162811279296875,-0.4564971923828125,0.17412460055566267,-0.6491354121611334,None
123,7.293,1.331756591796875,-1.00006103515625,0.69866943359375,0.1487611358565623,-0.7048123217296784,Straight
124,7.343,1.384521484375,-1.02117919921875,0.1856842041015625,0.020174903943049292,-0.7246832769073314,None
125,7.393,1.1566925048828125,-1.2081146240234375,0.0411529541015625,-0.03956549182989386,-0.7164250112743713,None
126,7.443,0.3199920654296875,-1.242462158203125,0.0009002685546875,-0.005288782671374103,-0.7021717895226757,None
127,7.493,0.150421142578125,-1.13287353515625,-0.1154327392578125,0.026558130441891592,-0.7083301017485784,None
128,7.543,0.207244873046875,-1.0098876953125,-0.21307373046875,-0.20644260620467073,-0.19686568311183947,None
129,7.592,0.24627685546875,-0.8712158203125,-0.183441162109375,-0.2060398483683714,-0.26660460637727745,None
130,7.642,0.173095703125,-0.861236572265625,0.0286865234375,0.033290067261194226,-0.19693969279507084,None
131,7.692,0.230255126953125,-0.757476806640625,-0.18048095703125,-0.23177771023549118,-0.2835615756487681,None
132,7.742,0.1276092529296875,-0.8897857666015625,0.005035400390625,0.005659024847031253,-0.1419609544891083,None
133,7.792,-0.173980712890625,-1.1740570068359375,-0.330291748046875,0.0025747655323668127,-0.11985177054726141,None
134,7.842,-0.1109771728515625,-1.5207061767578125,-0.7773895263671875,0.08952505256308763,-0.1357429595853046,None
135,7.891,0.387420654296875,-1.7152557373046875,-0.296722412109375,0.35135951135058946,-0.15258927503386305,None
136,7.941,2.042633056640625,-0.6508026123046875,0.708099365234375,0.6880284658801686,-0.20881078253443375,None
137,8.2,-2.780975341796875,2.0355682373046875,-0.5775146484375,0.3773637032080875,-0.39948691205203435,None
138,8.25,0.002288818359375,0.319976806640625,0.4791107177734375,0.23552311073019438,-0.5510409359111547,None
139,8.3,1.014739990234375,-0.4395599365234375,0.2198486328125,0.08621201503843866,-0.5955614695735473,Straight
140,8.35,1.6413421630859375,-0.583221435546875,0.71575927734375,-0.016440941499287067,-0.6287289415928922,None
141,8.4,1.287261962890625,-0.7373199462890625,0.159698486328125,-0.14491019766592633,-0.6112036929780527,None
142,8.45,0.6288299560546875,-0.7850189208984375,0.3967437744140625,0.4510606658718525,-0.5815803500829847,None
143,8.5,0.27923583984375,-0.993377685546875,0.7425384521484375,0.4630510063310438,-0.5335328256271292,None
144,8.549,0.433929443359375,-0.7659454345703125,0.287750244140625,0.3516813140336863,-0.46852671351854375,None
145,8.599,0.5587005615234375,-0.5277252197265625,0.4080047607421875,0.611651253610547,-0.6420962873059763,None
146,8.649,0.374908447265625,-0.598114013671875,0.4080352783203125,0.5635539114570054,-0.45981501452691675,None
147,8.699,0.158111572265625,-1.0555572509765625,0.6006317138671875,0.4872928810196805,-0.40641265683256167,None
148,8.799,-0.1585540771484375,-2.054473876953125,-0.5460052490234375,0.42929100363585465,-0.4891425270079055,None
149,8.848,1.305084228515625,-0.5908966064453125,-0.34136962890625,0.5268766464720933,-0.6037470761994933,None
150,8.972,2.223114013671875,0.7360992431640625,1.848419189453125,0.7129040642769529,-0.4309356192790824,None
151,9.167,-2.2129974365234375,2.2028656005859375,-0.724273681640625,0.5329896814384307,-0.6697274200637626,None
152,9.217,0.1015625,0.2426910400390625,0.905181884765625,0.3611636766220627,-0.8117069122885133,Straight
153,9.267,0.6171875,-0.407470703125,0.763824462890625,0.2888314613818102,-0.8631897360129802,None
154,9.317,1.5257720947265625,-0.4546966552734375,0.791717529296875,0.12520673832487555,-0.8941577979406623,None
155,9.367,1.63671875,-0.729583740234375,0.0933990478515625,0.07316927021508432,-0.9022779550504263,None
156,9.417,1.0962371826171875,-0.4351043701171875,0.1022186279296875,0.08544865503148065,-0.870014538024698,None
157,9.466,0.812469482421875,-0.058624267578125,0.389801025390625,0.14806027112224796,-0.8228843801866635,None
158,9.516,0.6431884765625,-0.2486572265625,0.724884033203125,0.15813986784853085,-0.7707052672001382,None
159,9.566,-0.10107421875,-1.52197265625,0.7340087890625,0.11415057495881761,-0.6885046282306252,None
160,9.656,0.3230438232421875,-2.3110504150390625,0.693695068359375,0.05434698012719754,-0.7562483769063132,None
161,9.706,1.7131805419921875,-0.291412353515625,0.2513885498046875,0.06494624789581471,-0.8704769414160443,None
162,9.995,-2.151031494140625,1.435333251953125,-0.013702392578125,-0.13577533240085726,-0.95685661642224,None
163,10.045,-0.2729034423828125,0.3311614990234375,0.1798095703125,-0.2097665019362919,-0.9903636468323844,Straight
164,10.094,1.0164794921875,-0.3063507080078125,0.96490478515625,-0.26435428544567496,-0.9976269003935134,None
165,10.144,1.27630615234375,-0.28680419921875,0.9369659423828125,-0.34548100560878675,-0.99963875448372,None
166,10.194,1.634765625,-0.605316162109375,0.992156982421875,-0.4286377937145428,-0.9987470714147427,None
167,10.244,0.94598388671875,-0.7784576416015625,0.2434234619140625,-0.45636998820545976,-0.9942571756256569,None
168,10.294,0.725341796875,-0.6563262939453125,0.5562896728515625,-0.4552298696318659,-0.9837452226452996,None
169,10.344,0.566650390625,-0.475341796875,0.2827606201171875,0.5112422988130527,-0.7156205238121185,None
170,10.393,0.6382598876953125,-0.2291107177734375,0.2218017578125,0.49635719219109614,-0.683704475814857,None
171,10.443,0.4156951904296875,-0.555328369140625,0.7562255859375,0.806017037684153,-0.40508535182962724,None
172,10.493,0.383148193359375,-0.8419189453125,1.0793304443359375,0.6873131777123165,-0.3345570115449591,None
173,10.543,-0.22064208984375,-1.1553955078125,0.0841522216796875,0.42989987615020697,-0.24346947033196478,None
174,10.593,-0.3378753662109375,-1.297027587890625,-0.6128387451171875,0.25144088012696564,-0.2118645217139869,None
175,10.643,-0.4354705810546875,-1.2332611083984375,-0.51904296875,0.24501763755899425,-0.19657921384646526,None
176,10.693,-0.1181793212890625,-1.03570556640625,0.1665496826171875,0.15876823665097695,0.11194962948023172,None
177,10.742,-0.0213165283203125,-0.96539306640625,-0.14263916015625,-0.14616557793979146,0.02183832000771478,None
178,10.792,-0.03265380859375,-0.9089813232421875,-0.284149169921875,-0.2983634840035462,0.034267150229034704,None
179,10.842,-0.169189453125,-0.97833251953125,-0.05291748046875,-0.05401051208517233,0.1701656131169658,None
180,10.892,-0.135162353515625,-0.9696197509765625,0.0354766845703125,0.03656377877771626,0.137971783749371,None
181,10.942,0.0260772705078125,-0.834808349609375,-0.0052947998046875,-0.0063424057886953215,-0.03122157712894788,None
182,10.992,0.2329559326171875,-0.675384521484375,0.0484161376953125,0.071503282192453,-0.3253254531739645,None
183,11.041,0.096405029296875,-1.0017852783203125,-0.17486572265625,-0.17195410509940443,-0.0943766951385821,None
184,11.131,0.154327392578125,-2.1247100830078125,-0.2577362060546875,-0.0809665323350053,-0.28470893663891456,None
185,11.181,1.5084228515625,-0.05560302734375,0.0894622802734375,0.1992157062449822,-0.46379606858704336,None
186,11.414,-3.3480377197265625,-2.159637451171875,-0.2719573974609375,0.3776669330799106,-0.5689760462692858,None
187,11.464,-1.282257080078125,0.781829833984375,1.917236328125,0.19462323120527308,-0.6960598487496875,None
188,11.514,-1.8560638427734375,1.178375244140625,0.604400634765625,-0.0757355647622771,-0.8093479871382407,Straight
189,11.564,-0.4920654296875,0.128326416015625,0.7910308837890625,-0.2788945616288772,-0.8780036420263819,None
190,11.613,-0.060638427734375,-0.7228851318359375,0.95867919921875,-0.5361330850403051,-0.9314269993015103,None
191,11.663,0.4530792236328125,-0.7781524658203125,0.7027130126953125,-0.7281143220481949,-0.9736075406006476,None
192,11.713,0.67327880859375,-0.919219970703125,0.62078857421875,-0.884832809327569,-0.9934158040760116,None
193,11.763,0.801513671875,-0.7919464111328125,-0.274078369140625,-0.9334031864219224,-0.9956749052314016,None
194,11.813,0.3064422607421875,-1.10394287109375,-0.3710784912109375,-0.9255451116386725,-0.9940913731759742,None
195,11.863,0.0490570068359375,-1.3307037353515625,-0.283203125,-0.9286314460174696,-0.994863984294347,None
196,11.912,-0.2201690673828125,-1.280975341796875,-0.820343017578125,-0.9168478490277083,-0.997526053583758,None
197,11.962,0.07135009765625,-0.9210357666015625,-0.23858642578125,-0.2507645689827663,-0.07478202874363034,None
198,12.012,0.1145782470703125,-0.8024444580078125,-0.1315765380859375,-0.16180887825962326,-0.13952660389371863,None
199,12.062,0.182708740234375,-0.730682373046875,-0.104095458984375,-0.14103928677522123,-0.2402991168630013,None
200,12.112,0.1944732666015625,-0.7280426025390625,-0.06549072265625,-0.08959276599755439,-0.25710060096855203,None
201,12.162,-0.016571044921875,-0.966461181640625,-0.265899658203125,-0.26527040801981444,0.01652957100562558,None
202,12.211,-0.041259765625,-1.1679534912109375,-0.3443145751953125,-0.2811379507792043,0.02103494751057005,None
203,12.261,-0.0430755615234375,-1.255615234375,-0.4192962646484375,-0.28128076290885995,0.022029207829938828,None
204,12.311,-0.0301055908203125,-1.1482696533203125,-0.3195953369140625,-0.2536795495921388,0.008128014253273499,None
205,12.361,0.173828125,-0.8552398681640625,-0.134674072265625,-0.15555257937643122,-0.1968482767931639,None
206,12.411,0.2032012939453125,-0.6226959228515625,-0.001434326171875,-0.0023034073521146603,-0.3102244625341295,None
207,12.461,0.126495361328125,-0.558013916015625,0.0923004150390625,0.16319140537371551,-0.21825772051850764,None
208,12.511,-0.1429443359375,-0.8711700439453125,0.2425537109375,0.26822080170870016,0.15613218643821117,None
209,12.56,-0.7086181640625,-1.3570404052734375,-0.015350341796875,0.2592326571404137,0.17504238637687908,None
210,12.61,-0.69818115234375,-1.4856109619140625,-0.0571746826171875,0.25563936960546196,0.1655227297688678,None
211,12.66,-0.51708984375,-1.2396697998046875,0.16998291015625,0.27846175968991793,0.1233457186894014,None
212,12.71,-0.272247314453125,-0.911376953125,0.2491912841796875,0.26374184974656895,0.2768790856298043,None
213,12.76,-0.1059112548828125,-0.6633758544921875,0.172637939453125,0.2518527783657921,0.15269667893655753,None
214,12.81,0.1718597412109375,-0.52886962890625,0.3262786865234375,0.5250547305231538,-0.26655442609864277,None
215,12.859,0.15087890625,-0.461395263671875,0.113006591796875,0.23789223042315782,-0.3027155920272132,None
216,12.909,0.13531494140625,-0.57208251953125,0.1794281005859375,0.29926602201636676,-0.2201529739142187,None
217,13.008,0.673797607421875,-2.66290283203125,-0.2256622314453125,0.3128479459825188,-0.24537321589319966,None
218,13.059,1.6309814453125,-0.708984375,-0.5330657958984375,0.6073465106839688,-0.3002012262794094,None
219,13.155,2.05963134765625,0.93743896484375,0.493133544921875,0.8186440281804573,-0.2455204369742878,None
220,13.314,-1.4180450439453125,-0.116790771484375,2.4889373779296875,0.7924516537269488,-0.3674139011507663,None
221,13.364,-1.6561126708984375,1.0303497314453125,0.3990631103515625,0.6603749071982518,-0.5003770282727453,Straight
222,13.414,-0.55657958984375,0.3612823486328125,0.7999725341796875,0.5758551231918718,-0.6360758932038755,None
223,13.464,0.3527374267578125,-0.18499755859375,1.17559814453125,0.40608431245027543,-0.7325589658726148,None
224,13.514,0.467987060546875,-0.4385986328125,1.25543212890625,0.14605216354258668,-0.786137600802318,None
225,13.563,0.82647705078125,-0.4478759765625,0.8616790771484375,-0.33109465045974634,-0.8556657166285656,None
226,13.613,0.9933929443359375,-0.4721832275390625,-0.44390869140625,-0.54420217927443,-0.8886730229078936,None
227,13.663,0.79638671875,-0.96319580078125,0.0489654541015625,-0.534908938243294,-0.8912664633245093,None
228,13.713,0.6687774658203125,-1.065338134765625,0.059600830078125,-0.5143591808460751,-0.8808122402018584,None
229,13.763,0.3533935546875,-1.681121826171875,-0.7383575439453125,-0.49690327106803156,-0.8608558548416154,None
230,13.823,0.125396728515625,-2.019012451171875,-0.863128662109375,-0.2923849831415923,-0.8730520114194532,None
231,13.872,1.0577239990234375,-0.8807830810546875,0.138458251953125,0.008170206891203598,-0.895369660213677,None
232,14.152,-1.6516571044921875,0.0362701416015625,2.47650146484375,0.20970728715033968,-0.917000276804481,None
233,14.201,-1.4777984619140625,1.09295654296875,0.1882476806640625,-0.0028969217063798615,-0.9753483639423857,Straight
234,14.251,-0.6732025146484375,0.163055419921875,1.455108642578125,-0.06845013269592296,-0.9964766821760723,None
235,14.301,-0.15325927734375,-0.144012451171875,0.9669189453125,-0.1831698153430595,-0.9995888965482254,None
236,14.351,0.5980224609375,-0.304840087890625,0.5950927734375,-0.33138694174047656,-0.9918174411935101,None
237,14.401,0.800811767578125,-0.3887939453125,0.5294952392578125,-0.481378447030893,-0.9788453817709843,None
238,14.451,0.988555908203125,-0.4149932861328125,0.0348663330078125,-0.6211455596954835,-0.9693411746926271,None
239,14.5,1.4265289306640625,-0.2693939208984375,0.3642425537109375,-0.6652708287588103,-0.9626822674544768,None
240,14.55,0.7821502685546875,-0.5034637451171875,0.477447509765625,-0.6784163155008047,-0.9785886804048815,None
241,14.6,-0.4736328125,-1.8396148681640625,0.648529052734375,-0.6710360094601382,-0.9962154757201105,None
242,14.67,0.1255645751953125,-2.116790771484375,1.556854248046875,-0.6302089961666841,-0.9827153767317108,None
243,14.72,1.430023193359375,-0.7603607177734375,0.2361602783203125,-0.5317446081004151,-0.9566055350289367,None
244,14.853,2.38531494140625,0.869110107421875,0.44049072265625,-0.4365582318276926,-0.9832461017900892,None
245,15.049,-0.888824462890625,2.155975341796875,-0.6003875732421875,-0.6402292666583269,-0.9254592449140473,None
246,15.099,-1.251922607421875,0.5934600830078125,1.4411163330078125,-0.670708273060455,-0.867452415094069,Straight
247,15.148,-0.31365966796875,0.3408966064453125,1.653533935546875,-0.7657546730063446,-0.8216324725620181,None
248,15.198,0.4224853515625,0.2310638427734375,0.586700439453125,-0.9468665170764881,-0.7605456827065954,None
249,15.248,1.0285491943359375,-0.6423492431640625,0.2609405517578125,-0.9999966406194642,-0.7063617022300428,None
250,15.298,1.015594482421875,-0.9864044189453125,-0.0244903564453125,-0.9663238983290838,-0.6746685893995913,None
251,15.348,1.084686279296875,-1.000213623046875,0.6823272705078125,-0.9258096834057233,-0.6301122074879961,None
252,15.398,0.4294281005859375,-0.948455810546875,-0.2436676025390625,-0.248829316411104,-0.40160647528947696,None
253,15.447,0.4091949462890625,-0.9959716796875,-0.464569091796875,-0.41880423587362503,-0.3772425454353318,None
254,15.497,0.216522216796875,-1.06060791015625,-0.061981201171875,-0.058339781586576385,-0.19969644528044547,None
255,15.547,0.136505126953125,-1.0205535888671875,-0.0123748779296875,-0.012124760930637598,-0.132565715677075,None
256,15.597,0.2079620361328125,-0.943267822265625,-0.2503814697265625,-0.2565560240066206,-0.20841130563426916,None
257,15.647,0.2111358642578125,-0.9292755126953125,-0.0823211669921875,-0.08824083379316404,-0.22073605296363372,None
258,15.697,0.085418701171875,-1.0506744384765625,0.1056671142578125,0.10006596390399354,-0.0806275125141109,None
259,15.746,0.1417236328125,-0.995849609375,0.1170501708984375,0.11673441188303495,-0.13995030720878035,None
260,15.796,0.169036865234375,-0.95013427734375,0.087982177734375,0.09220525734346091,-0.17443457416454258,None
261,15.846,0.1262359619140625,-0.8896942138671875,0.0157623291015625,0.01771378943821633,-0.14045828530581725,None
262,15.896,0.0921173095703125,-0.9121856689453125,0.1133575439453125,0.12332166717476287,-0.09971495288556033,None
263,15.946,0.0238037109375,-1.033050537109375,-0.00640869140625,-0.006203537832074176,-0.023035597723729515,None
264,15.996,-0.0631866455078125,-1.1250762939453125,-0.0048828125,-0.0063856544929719004,-0.0153798416538516,None
265,16.046,-0.0340423583984375,-1.0828704833984375,0.15093994140625,0.13805404074772468,0.03112104503409509,None
266,16.095,-0.0142059326171875,-0.9445953369140625,0.18731689453125,0.19451611476240255,0.014750309649608738,None
267,16.145,0.0342864990234375,-0.9140167236328125,0.236175537109375,0.25017620111329847,-0.03629509851796089,None
268,16.195,-0.0669097900390625,-0.9999237060546875,0.14251708984375,0.1411019810108428,0.06610053529756978,None
269,16.245,-0.023712158203125,-1.01104736328125,0.1417694091796875,0.1388618559623578,0.023219582873871335,None
270,16.295,0.0993499755859375,-0.8834686279296875,0.1236724853515625,0.13863341727047795,-0.11068426932641362,None
271,16.345,0.19354248046875,-0.7125244140625,0.09027099609375,0.1256871190703792,-0.26019354783018783,None
272,16.394,0.2617645263671875,-0.6329498291015625,0.2620697021484375,0.382550483217091,-0.35693539773943417,None
273,16.444,-0.5086822509765625,-1.593963623046875,0.0122222900390625,0.46311334723715347,-0.3301889912787952,None
274,16.514,0.97100830078125,-2.127410888671875,0.503082275390625,0.6039857574965785,-0.4093130422245078,None
275,16.634,2.5781402587890625,1.546600341796875,-0.8371429443359375,0.8217087789023074,-0.42435007882778164,None
276,16.753,-2.9410858154296875,-1.459503173828125,0.2619476318359375,0.916850037020699,-0.44241997452635573,None
277,16.803,-1.7630615234375,0.686370849609375,1.591064453125,0.7763969520184065,-0.5966076477943071,None
278,16.853,-1.41058349609375,1.20733642578125,0.2054443359375,0.6777573735120337,-0.7155362531189505,Straight
279,16.903,-0.5825042724609375,0.459869384765625,0.905548095703125,0.5977367358722504,-0.767319251598122,None
280,16.953,0.051849365234375,-0.1394195556640625,1.368072509765625,0.41123461980933546,-0.8188252111382086,None
281,17.003,0.908050537109375,-0.5280609130859375,0.6096649169921875,0.10593054996599317,-0.8585962526838792,None
282,17.052,1.1374053955078125,-0.5180511474609375,0.5643157958984375,-0.13107750010421268,-0.9012363251589917,None
283,17.102,1.3036041259765625,-0.716094970703125,0.039306640625,-0.2222529233984235,-0.9134948912998252,None
284,17.152,0.6380157470703125,-0.86920166015625,-0.0169677734375,-0.01951738262294744,-0.5916529355142883,None
285,17.202,0.6030426025390625,-1.127716064453125,0.495391845703125,-0.05672416927607714,-0.5662827747897632,None
286,17.252,0.1595611572265625,-1.2389678955078125,0.0062408447265625,-0.046574090945866245,-0.5164953400205816,None
287,17.302,0.04205322265625,-1.23077392578125,0.3502349853515625,0.004891736722830679,-0.5098649330960562,None
288,17.351,0.194610595703125,-0.9751739501953125,0.4097747802734375,0.38739458651225644,-0.1809448329225426,None
289,17.401,0.2569580078125,-0.797149658203125,0.249725341796875,0.2989468082722895,-0.2940096600170905,None
290,17.451,0.1976470947265625,-0.9108428955078125,0.1592254638671875,0.17219979608244623,-0.20903021584737425,None
291,17.501,0.0453948974609375,-1.0591278076171875,0.1363067626953125,0.12764443667697697,-0.04247168327554229,None
292,17.551,-0.0067138671875,-1.025177001953125,0.2860260009765625,0.2687380316790568,0.0063079424608288685,None
293,17.601,0.1846923828125,-0.8478546142578125,0.336334228515625,0.3687356300037594,-0.1984575445099282,None
294,17.65,0.319366455078125,-0.753997802734375,0.3180084228515625,0.3886129479075737,-0.3635655985237454,None
295,17.7,0.0859832763671875,-1.09521484375,0.2644500732421875,0.380558669109821,-0.3647975144664023,None
296,17.75,-0.0253143310546875,-1.174224853515625,0.2293853759765625,0.3927472190765355,-0.36124235778450103,None
297,17.8,0.0609893798828125,-0.9545135498046875,0.3654937744140625,0.3575921415939965,-0.059564897200826715,None
298,17.85,0.300537109375,-0.6530609130859375,0.349273681640625,0.4716123859544464,-0.37602312845179464,None
299,17.9,0.22271728515625,-0.7827606201171875,0.382049560546875,0.43862311598251036,-0.24772695500177438,None
300,17.95,-0.249908447265625,-1.24432373046875,0.181976318359375,0.4707589858063227,-0.23364063828852843,None
301,17.999,-0.0292205810546875,-1.0684051513671875,0.4012603759765625,0.4716412854189442,-0.2610456813958992,None
302,18.049,0.4152374267578125,-0.6085205078125,0.2924346923828125,0.4331461551830775,-0.5238833608770666,None
303,18.099,0.635406494140625,-0.2812957763671875,0.32122802734375,0.4771334202115645,-0.49509919235690764,None
304,18.149,0.183441162109375,-0.6668548583984375,0.659576416015625,0.7032161321414805,-0.19194170736664307,None
305,18.199,-0.8767547607421875,-1.8623046875,-0.2456207275390625,0.704051487892196,-0.14863481570866863,None
306,18.268,1.1000518798828125,-1.9809722900390625,0.4980926513671875,0.7183975118762911,-0.24018759910889972,None
307,18.408,2.4830169677734375,1.380645751953125,-0.408599853515625,0.9071711568681202,-0.07653246516706493,None
308,18.508,-4.3171234130859375,-1.824493408203125,-0.3210601806640625,0.9687929936961801,0.14517653077782244,None
309,18.597,-1.8509368896484375,2.3392333984375,-0.1407470703125,0.9102754892231869,-0.11061879146043499,Straight
310,18.647,-0.582244873046875,0.5748138427734375,1.2194976806640625,0.8367759689029399,-0.20335084347519053,None
311,18.697,0.37371826171875,-0.1630706787109375,1.3300018310546875,0.6607715541609219,-0.2954031455307731,None
312,18.747,1.065826416015625,-0.564056396484375,0.45013427734375,0.456262480101056,-0.33449359545830637,None
313,18.797,1.3703765869140625,-0.8064727783203125,0.8494873046875,0.33302789703542407,-0.35929520502074697,None
314,18.847,0.929290771484375,-0.7474212646484375,0.2564697265625,0.15828420501762322,-0.31887024989784163,None
315,18.896,0.7684326171875,-0.925018310546875,0.24334716796875,0.009124589295773233,-0.2653479757769499,None
316,18.946,0.3269195556640625,-0.9471282958984375,-0.332794189453125,-0.3315031809763036,-0.30964617670090383,None
317,18.996,0.3391876220703125,-1.011322021484375,0.128326416015625,0.125880412940679,-0.31570603065502156,None
318,19.046,0.0016937255859375,-1.25604248046875,0.2626800537109375,0.14556238036250435,-0.29630951886065965,None
319,19.096,0.0804290771484375,-1.0312042236328125,0.070159912109375,0.06787994697531637,-0.07758086737068917,None
320,19.146,0.14825439453125,-0.9698333740234375,0.13116455078125,0.1340242505098599,-0.14977787388196828,None
321,19.196,0.0022125244140625,-0.9216766357421875,0.1344451904296875,0.14434265092346843,-0.0023753972688480445,None
322,19.245,0.041961669921875,-0.958984375,0.259857177734375,0.26153947681719614,-0.042195712634304376,None
323,19.295,0.059234619140625,-1.031005859375,0.123779296875,0.11920084586116964,-0.056951016792307574,None
324,19.345,-0.0852203369140625,-1.0275115966796875,0.2664031982421875,0.2509721362375134,0.08002656613536756,None
325,19.395,0.0226287841796875,-0.9365234375,0.19720458984375,0.20605226351721728,-0.023637428665075393,None
326,19.445,0.058929443359375,-0.8687286376953125,0.261505126953125,0.2882442594306449,-0.06481843588208992,None
327,19.495,0.0587921142578125,-0.933837890625,0.2302093505859375,0.23935387417864987,-0.06101360782542268,None
328,19.544,-0.018096923828125,-1.0059356689453125,-0.05401611328125,-0.05362013464611079,0.017961361836180297,None
329,19.594,-0.1573028564453125,-1.07476806640625,0.3155364990234375,-0.07738667262774274,0.03398581478928358,None
330,19.644,-0.04852294921875,-1.031585693359375,0.1468048095703125,0.14089034287462807,0.046517647050768766,None
331,19.694,0.0090484619140625,-1.0239715576171875,0.2753143310546875,0.2596478165049284,-0.00853325662403567,None
332,19.744,0.0271453857421875,-0.978546142578125,-0.1600799560546875,-0.1614436055782789,-0.02736637179015886,None
333,19.794,0.0397796630859375,-0.981048583984375,-0.210662841796875,-0.20994655485843378,-0.03961328848441924,None
334,19.843,0.012115478515625,-0.915557861328125,-0.0967864990234375,-0.10512736166310488,-0.013158426387783856,None
335,19.893,0.1136322021484375,-0.8201446533203125,-0.045562744140625,-0.055468990778313784,-0.13703308607450984,None
336,19.943,0.0961456298828125,-0.746124267578125,-0.059539794921875,-0.07954589879770327,-0.12740496365428738,None
337,19.993,0.0196685791015625,-0.9145355224609375,0.0260467529296875,0.02846931002998572,-0.021492948817524653,None
338,20.043,-0.4005584716796875,-1.5095062255859375,-0.6352996826171875,0.1127051306437841,-0.050645262610179,None
339,20.093,0.0460205078125,-1.6255340576171875,-0.1364288330078125,0.2591807294887122,-0.11093391890772772,None
340,20.143,1.0766143798828125,-1.13525390625,0.341705322265625,0.4648185173651354,-0.13965962046803332,None
341,20.192,1.8702392578125,-0.7735595703125,0.698455810546875,0.6844367205245423,-0.11227353386323966,None
342,20.442,-1.9417724609375,1.9501800537109375,-0.1109771728515625,0.5468275270665643,-0.35461046796230133,None
343,20.491,-0.7713623046875,0.8153839111328125,0.5760040283203125,0.4889731805253371,-0.4852988687134107,Straight
344,20.541,0.344879150390625,0.1766815185546875,1.250762939453125,0.3701051264277882,-0.5522392705058177,None
345,20.591,0.98699951171875,-0.1268768310546875,1.0249176025390625,0.1983620681357815,-0.597445232718404,None
346,20.641,1.05462646484375,-0.7698516845703125,0.7137298583984375,0.029495211227740133,-0.610409139078379,None
347,20.691,0.77984619140625,-0.8051300048828125,0.2554473876953125,-0.11123739125416264,-0.5940989079890981,None
348,20.741,0.782501220703125,-0.8385772705078125,0.9533843994140625,-0.29255236149207536,-0.5639433846841021,None
349,20.79,0.2759246826171875,-0.83392333984375,0.28778076171875,0.3262145562475214,-0.2985141554265124,None
350,20.84,-0.0428619384765625,-1.1899261474609375,-0.6184844970703125,0.19034031971697796,-0.29451436598582637,None
351,20.89,-0.0008087158203125,-1.2371063232421875,-0.7140655517578125,0.21167496543255826,-0.3093640235940753,None
352,20.94,-0.0655059814453125,-1.1086273193359375,-0.17413330078125,0.24509435380800254,-0.3146642842194826,None
353,20.99,0.1294097900390625,-0.8929595947265625,-0.080841064453125,-0.09016287187094148,-0.14285181471099637,None
354,21.04,0.1672210693359375,-0.803985595703125,-0.1200103759765625,-0.14763363545499053,-0.20149190390779,None
355,21.09,0.0034332275390625,-0.947601318359375,-0.084136962890625,-0.0884414785302209,-0.003608850759226625,None
356,21.139,-0.0643768310546875,-1.140350341796875,-0.1984100341796875,-0.11690062625541087,-0.0030761283345909513,None
357,21.189,-0.096832275390625,-1.0837860107421875,-0.3389434814453125,-0.11750983081124859,-0.011675547821413487,None
358,21.239,0.0546417236328125,-0.942718505859375,0.0211029052734375,0.022379554282593816,-0.05785030292840595,None
359,21.289,0.158660888671875,-0.786651611328125,-0.1070404052734375,-0.13482844655208975,-0.19597448905159365,None
360,21.339,0.09027099609375,-0.8053741455078125,-0.39312744140625,-0.4386597728709053,-0.1002191367775178,None
361,21.389,0.046539306640625,-1.00079345703125,-0.271881103515625,-0.26216362161813495,-0.044830796083154247,None
362,21.438,-0.2911376953125,-1.329345703125,-0.5673065185546875,-0.18353788293560475,-0.04515758085918585,None
363,21.488,-0.08013916015625,-1.00335693359375,-0.0282440185546875,-0.028138376321625257,0.07958616108598998,None
364,21.538,0.2941436767578125,-0.7064971923828125,0.4388580322265625,0.5276601352795022,-0.3334252710716138,None
365,21.588,-0.013427734375,-0.8038177490234375,0.3750152587890625,0.422793170753481,0.015136728028578019,None
366,21.638,-0.1785736083984375,-1.02362060546875,0.0499114990234375,0.048701903506005756,0.17165946569998194,None
367,21.688,-0.4522705078125,-1.31268310546875,-0.1766357421875,0.08483198855313259,0.16280587474982197,None
368,21.737,-0.1265716552734375,-0.9996185302734375,0.1336517333984375,0.13252346125668826,0.12452627475049893,None
369,21.787,0.2290191650390625,-0.6055755615234375,0.1396331787109375,0.22468377034517362,-0.34578278896450604,None
370,21.837,0.2662353515625,-0.4933929443359375,0.3331298828125,0.5595762991330508,-0.4082455046490978,None
371,21.887,0.187408447265625,-0.7282257080078125,0.46295166015625,0.5364921389572241,-0.21223109110236513,None
372,21.937,-0.715362548828125,-1.722259521484375,0.07470703125,0.53469245166718,-0.19079477643822806,None
373,22.013,-0.3990936279296875,-2.1652069091796875,0.1700439453125,0.5867812771504226,-0.22108051142630372,None
374,22.066,1.2086334228515625,-1.1184539794921875,0.556243896484375,0.7001730357469264,-0.3253802394409398,None
375,22.176,2.0648651123046875,1.105072021484375,0.3111114501953125,0.8614441622983148,-0.36785778378686934,None
376,22.365,-2.3856048583984375,1.72601318359375,0.5562286376953125,0.8035783554492127,-0.5217242586262234,Straight
377,22.415,-0.579193115234375,0.6108551025390625,1.118255615234375,0.529289780022973,-0.7015613769879745,None
378,22.465,0.4369964599609375,-0.0167694091796875,0.4197998046875,0.10448032413423872,-0.8326201348676372,None
379,22.515,0.8380889892578125,-0.37255859375,0.306182861328125,-0.2638992870121406,-0.9250408504018622,None
380,22.565,1.0100555419921875,-0.9952850341796875,0.2018280029296875,-0.3983899569310982,-0.9610479174331699,None
381,22.615,1.0283050537109375,-0.8111419677734375,-0.2703857421875,-0.4630189915249871,-0.9797702732496416,None
382,22.665,0.6479949951171875,-1.1371612548828125,-0.2806396484375,-0.4730033393367035,-0.9733587834176058,None
383,22.714,0.3870697021484375,-1.220611572265625,0.0208892822265625,-0.43594066481282323,-0.95926855210614,None
384,22.814,0.1630401611328125,-1.986083984375,-0.8666534423828125,-0.2700711264097536,-0.9639845719969108,None
385,22.864,1.542449951171875,-0.6309051513671875,0.1797332763671875,0.012820292794286592,-0.9848144128566959,None
386,23.073,-3.8870849609375,-2.20416259765625,-0.0281219482421875,0.07935948938047926,-0.8199413126663323,None
387,23.123,-1.1096343994140625,1.411346435546875,0.439056396484375,0.22395825423996998,-0.9011016261516368,None
388,23.173,-1.4764404296875,0.2796173095703125,0.5222930908203125,0.0071334838142492404,-0.9565127230648423,None
389,23.223,-0.6483154296875,-0.3474884033203125,1.188446044921875,-0.032551592225192966,-0.9904655907552398,Straight
390,23.273,0.2252349853515625,-0.313720703125,0.8902740478515625,-0.1504071572440167,-0.9991223927822732,None
391,23.322,0.9833984375,-0.5111846923828125,0.4684295654296875,-0.30734551770936436,-0.9970133598080272,None
392,23.372,1.1951446533203125,-0.50787353515625,0.559600830078125,-0.4186278732615562,-0.989738105894973,None
393,23.422,0.8678436279296875,-0.4715576171875,-0.018310546875,-0.49719227584804826,-0.9851630545485913,None
394,23.472,0.9767303466796875,-0.5366668701171875,0.461273193359375,-0.544569201720272,-0.9898057587890343,None
395,23.522,0.549041748046875,-1.0771026611328125,0.4727630615234375,-0.5570411542172791,-0.9959611750465154,None
396,23.612,0.7139739990234375,-2.2433624267578125,0.6240386962890625,-0.5523846243681942,-0.99244146437189,None
397,23.661,1.5598907470703125,-0.984954833984375,0.4740447998046875,-0.4717557649236657,-0.9740477177769814,None
398,23.881,-2.7410430908203125,-1.6420135498046875,-1.557220458984375,-0.08991456580537409,-0.9783175776948125,None
399,23.931,-1.9008026123046875,0.9023590087890625,2.2414703369140625,-0.3207368084696391,-0.9238417233815805,None
400,23.98,-0.8430023193359375,0.715728759765625,-0.1000823974609375,-0.39840326467548626,-0.8678308367876351,Straight
401,24.03,-1.1655731201171875,-0.6873321533203125,1.140960693359375,-0.4490265024823041,-0.8434010291199994,None
402,24.08,-0.124969482421875,-0.5845489501953125,0.9360198974609375,-0.5945667742937861,-0.7828902208880506,None
403,24.13,0.9835662841796875,-0.4249420166015625,0.7877197265625,-0.7188841699914402,-0.7513430066473891,None
404,24.18,1.0107269287109375,-0.4234771728515625,0.1923065185546875,-0.8065648854714722,-0.7462702122152943,None
405,24.23,1.27569580078125,-0.5725555419921875,-0.065399169921875,-0.8640258361645318,-0.7664083981813662,None
406,24.279,1.1704254150390625,-1.0069122314453125,0.161376953125,-0.833290530410972,-0.8047439713373956,None
407,24.369,-0.1755828857421875,-2.3838958740234375,1.0256500244140625,-0.7673381476451628,-0.8200373238572845,None
408,24.419,1.8447265625,-0.1735076904296875,0.5664215087890625,-0.7254858841578279,-0.7371168645551284,None
409,24.499,2.220672607421875,0.67388916015625,0.1890106201171875,-0.5698696987527194,-0.789903135223211,None
410,24.698,-1.9462890625,1.510589599609375,-0.1414794921875,-0.7178869397515686,-0.6351363104995801,None
411,24.748,-1.2358245849609375,0.281890869140625,1.39154052734375,-0.7383722494097243,-0.4972325272019147,Straight
412,24.798,-0.4650726318359375,0.328521728515625,1.045684814453125,-0.8382440642573905,-0.39873896457342894,None
413,24.848,0.4252471923828125,-0.14605712890625,0.34814453125,-0.9317710548975486,-0.32698153026415916,None
414,24.897,1.3134765625,-0.2304229736328125,0.456512451171875,-0.9811029921573521,-0.26190520585391885,None
415,24.947,1.23797607421875,-0.52630615234375,0.58892822265625,-0.997982770693355,-0.275693416838608,None
416,24.997,0.95477294921875,-0.50946044921875,-0.2586669921875,-0.9952798892103235,-0.3172695750123935,None
417,25.047,1.1785125732421875,-0.3548736572265625,-0.0219573974609375,-0.9816260746152586,-0.3751588818831497,None
418,25.097,0.0480499267578125,-1.8525543212890625,0.4971160888671875,-0.9831911114492075,-0.5253744053390705,None
419,25.197,0.170867919921875,-2.1847381591796875,1.178192138671875,-0.9954559274023476,-0.40795102330370603,None
420,25.246,1.2572174072265625,-0.5467529296875,-0.0386962890625,-0.9988433629223901,-0.19754480179467174,None
421,25.486,-1.9091339111328125,-0.1938934326171875,1.840606689453125,-0.999942599953971,-0.06378419973409133,None
422,25.535,-1.4389495849609375,0.8408660888671875,-0.4966888427734375,-0.9973039134614962,0.055546609191706106,None
423,25.585,-0.7257537841796875,0.2769622802734375,1.8713226318359375,-0.9980613304000553,0.16613734896645727,Straight
424,25.635,-0.131683349609375,0.11456298828125,0.771881103515625,-0.9481886184814536,0.2205123705842811,None
425,25.685,0.443817138671875,-0.1796875,0.4356536865234375,-0.8372695791592755,0.2692811268758891,None
426,25.735,0.95623779296875,-0.685150146484375,0.7391357421875,-0.6843618967309236,0.28464310850708624,None
427,25.785,0.8204345703125,-0.75189208984375,-0.0550994873046875,-0.5171008740392623,0.30770618121313004,None
428,25.834,1.114959716796875,-1.0695343017578125,0.2789764404296875,-0.42961080943656094,0.28928877309001944,None
429,25.884,0.3956451416015625,-1.1863250732421875,-0.0540771484375,-0.4302863379445212,0.27978173659103783,None
430,25.934,0.5482940673828125,-0.9624786376953125,0.4781494140625,-0.4769136988144786,0.2625861921484864,None
431,25.984,0.029998779296875,-0.9669952392578125,0.420074462890625,0.39844031456762846,-0.02844230837687446,None
432,26.034,0.3367919921875,-0.66339111328125,0.4813079833984375,0.5872469873787525,-0.3800833143969484,None
433,26.084,0.086212158203125,-0.8763580322265625,0.1285400390625,0.1451225072402771,-0.09687624812824278,None
434,26.134,-0.1822509765625,-1.1898040771484375,0.4074859619140625,0.24628416672072012,-0.06772778354968648,None
435,26.183,-0.303924560546875,-1.1601104736328125,0.7255401611328125,0.283031073683546,-0.08787294836911855,None
436,26.233,0.2983245849609375,-0.4234771728515625,0.3682861328125,0.6562244865902935,-0.46937190994224626,None
437,26.283,0.7181549072265625,-0.0818634033203125,0.5221099853515625,0.6555832198503305,-0.46252609314383203,None
438,26.333,-0.5637664794921875,-1.8789215087890625,0.4988555908203125,0.6141625297762858,-0.39886487086275724,None
439,26.403,0.512603759765625,-2.2581024169921875,1.0944976806640625,0.6714422858980669,-0.46970967803550434,None
440,26.712,-2.0105438232421875,1.9993438720703125,-0.334503173828125,0.7318922598993085,-0.5900409343088542,None
441,26.762,-0.5018310546875,0.5130767822265625,0.3463897705078125,0.5267817354032331,-0.757474937313325,Straight
442,26.811,-0.393218994140625,-0.3565216064453125,1.3777313232421875,0.5559758292891965,-0.7871748300313784,None
443,26.861,0.4379730224609375,-0.1544189453125,0.4415283203125,0.3736466512500006,-0.821728520752996,None
444,26.911,1.8345489501953125,-0.4407501220703125,0.5879058837890625,0.1395206335824687,-0.8787808929658268,None
445,26.961,1.0031585693359375,-0.5755767822265625,0.088623046875,0.017104443904155366,-0.8713389481371219,None
446,27.011,0.8356475830078125,-1.0309906005859375,1.1496124267578125,0.026826565292362995,-0.8235042416753857,None
447,27.061,0.047698974609375,-1.10906982421875,0.453155517578125,-0.019282267579609626,-0.7655702921106337,None
448,27.11,-0.0853271484375,-1.2573089599609375,0.7738189697265625,-0.041124949493579456,-0.7215394095869602,None
449,27.16,0.0468292236328125,-1.042816162109375,0.8733673095703125,0.016679038460975702,-0.6897065171754365,None
450,27.21,0.105010986328125,-0.8054656982421875,0.5537109375,0.5664963579411924,-0.10682101587255485,None
451,27.26,0.1088104248046875,-0.70306396484375,0.4936065673828125,0.5746038418342232,-0.12566137748348985,None
452,27.31,-0.2214813232421875,-0.9215545654296875,0.6548919677734375,0.5853204898387526,-0.13234366798390756,None
453,27.36,-0.0374908447265625,-0.645904541015625,0.594024658203125,0.676928443470365,0.042684237198105913,None
454,27.409,0.2147674560546875,-0.4853973388671875,0.4340972900390625,0.6666194968896149,-0.31321186177213917,None
455,27.459,-0.0872039794921875,-0.86248779296875,0.5933990478515625,0.5668133333178325,0.08300955126813218,None
456,27.509,-0.4134521484375,-1.172515869140625,0.6177978515625,0.5660918051341078,0.0942620486309802,None
457,27.559,-0.096893310546875,-0.9632110595703125,0.6663055419921875,0.564229195919901,0.07868963544142175,None
458,27.609,-0.0467071533203125,-0.768707275390625,0.411651611328125,0.4720825262176708,0.05348714088480709,None
459,27.659,-0.0454559326171875,-0.72674560546875,0.676666259765625,0.681440667042588,0.045728772305266625,None
460,27.709,-0.1657867431640625,-0.8476104736328125,0.718994140625,0.6927160476081646,0.04285080560059477,None
461,27.758,-0.2694091796875,-0.864776611328125,0.746917724609375,0.7050490947712902,0.03949477010907385,None
462,27.808,-0.142669677734375,-0.7534942626953125,0.694366455078125,0.6776650681855874,0.13790767931766557,None
463,27.858,-0.0048370361328125,-0.6874542236328125,0.535736083984375,0.614690602683501,0.005549812594419669,None
464,27.908,0.063507080078125,-0.58660888671875,0.5279998779296875,0.6690010481100654,-0.0802072554901607,None
465,27.958,0.20050048828125,-0.41864013671875,0.520416259765625,0.7791809471755704,-0.2875188905017161,None
466,28.008,0.26153564453125,-0.384552001953125,0.547576904296875,0.8183546059229666,-0.36404483084537526,None
467,28.057,0.1093902587890625,-0.5485687255859375,0.60748291015625,0.7421789156122885,-0.13246738243957493,None
468,28.107,-0.3742828369140625,-1.5811004638671875,0.4208831787109375,0.683395827318073,-0.09021677286321954,None
469,28.197,0.5396881103515625,-2.132354736328125,0.2819061279296875,0.5970252069195064,-0.20383246235634325,None
470,28.247,1.7389373779296875,-0.5186004638671875,0.3250732421875,0.6126242154729064,-0.40155457963681174,None
471,28.464,-2.3438720703125,-2.182159423828125,-1.1849365234375,0.2656241395345106,0.07635100685720322,None
472,28.516,-1.9867706298828125,1.101226806640625,0.8362274169921875,0.03944573007509897,-0.18797605056162953,None
473,28.566,-1.0662689208984375,0.3960723876953125,0.0378570556640625,-0.06971005317635937,-0.3764251524614563,Straight
474,28.616,-0.04083251953125,-0.1113433837890625,0.5002288818359375,-0.11776636363905765,-0.4904704895875872,None
475,28.666,0.638092041015625,-0.59283447265625,0.471282958984375,0.6222890799307768,-0.6443330596161426,None
476,28.715,1.1741485595703125,-0.5854339599609375,0.64910888671875,0.5014652800291824,-0.6964668271129075,None
477,28.765,1.6071014404296875,-0.6952056884765625,0.0500030517578125,0.431448838578931,-0.6932940135481225,None
478,28.815,0.7864837646484375,-0.8198394775390625,0.1453704833984375,0.4646045863919427,-0.6325991536333242,None
479,28.865,1.07794189453125,-0.8829498291015625,0.4654083251953125,0.5196334881344905,-0.5694236291523879,None
480,28.915,-0.2841796875,-1.5310821533203125,0.0976715087890625,0.5904977691059822,-0.46358295342007727,None
481,28.965,-0.163909912109375,-1.4878692626953125,0.837921142578125,0.6604279578871417,-0.4731023013016181,None
482,29.014,0.370086669921875,-0.755828857421875,0.6398773193359375,0.6461363088072299,-0.3500610975670286,None
483,29.064,0.1612701416015625,-1.46490478515625,0.1715850830078125,0.6513936730016038,-0.37271769935573956,None
484,29.114,-0.0583343505859375,-1.808807373046875,0.32196044921875,0.7272715329304689,-0.44399357225382763,None
485,29.164,0.9858856201171875,-0.592132568359375,0.8911895751953125,0.8073115880954909,-0.5664772462036,None
486,29.443,-2.0195770263671875,1.027313232421875,0.1710662841796875,0.777553010988233,-0.6769000471987935,None
487,29.493,-1.1820068359375,0.775665283203125,0.2734832763671875,0.725463859290293,-0.8142348678629738,None
488,29.543,-0.0795135498046875,-0.19024658203125,1.12396240234375,0.693728790280057,-0.8904843979789939,Straight
489,29.593,0.843658447265625,-0.854034423828125,0.7707061767578125,0.5669787120368208,-0.9238652709853972,None
490,29.642,1.067108154296875,-0.941009521484375,0.36517333984375,0.439949817579434,-0.9431856459649485,None
491,29.692,1.1738739013671875,-0.6809234619140625,0.6483917236328125,0.3634457431714562,-0.9500086365562835,None
492,29.742,0.8714141845703125,-0.58935546875,0.1192779541015625,0.19836531170150729,-0.8230674393756202,None
493,29.792,0.78240966796875,-0.44451904296875,0.387115478515625,0.1692129882130406,-0.7908902119614746,None
494,29.842,0.7489776611328125,-0.3167724609375,0.349029541015625,0.14680785457178083,-0.7565725307138571,None
495,29.892,0.2208251953125,-0.970062255859375,0.2278900146484375,0.22869706534215697,-0.2163582471919821,None
496,29.991,-0.1959686279296875,-2.315277099609375,0.860870361328125,0.31089663067752576,-0.2581475190934627,None
497,30.041,0.961273193359375,-0.8587646484375,0.35614013671875,0.3449976377620984,-0.4086807068039984,None
498,30.091,1.0146331787109375,-0.3629150390625,0.3637237548828125,0.4928636667253217,-0.5182796337110931,None
499,30.141,1.2983245849609375,0.07177734375,-0.142303466796875,0.6205238913475679,-0.6295809192818556,None
500,30.41,-0.7539825439453125,2.267669677734375,0.3546142578125,0.4433282225230053,-0.811618756904934,None
501,30.46,-0.15435791015625,0.48895263671875,1.0966796875,0.4240976968678752,-0.8773881023416898,Straight
502,30.51,0.071685791015625,-0.1938323974609375,0.5228424072265625,0.2731918615058136,-0.8904190247328766,None
503,30.56,0.533843994140625,-0.71441650390625,0.6618194580078125,0.12008262369958535,-0.9094741115158267,None
504,30.609,1.07037353515625,-0.6622772216796875,0.2710723876953125,-0.13649318003047572,-0.8990142977523842,None
505,30.659,0.925628662109375,-0.78338623046875,0.2693328857421875,-0.4458802502397516,-0.9154273680973075,None
506,30.709,1.08099365234375,-0.6855621337890625,-0.7635955810546875,-0.5920087384283281,-0.9154550471717103,None
507,30.759,0.879150390625,-0.957427978515625,-0.2311553955078125,-0.5543973148252681,-0.900872044166636,None
508,30.809,0.47357177734375,-1.0273284912109375,-0.35406494140625,-0.537168816376359,-0.8810740575037724,None
509,30.859,0.1775665283203125,-1.1885986328125,-0.4444122314453125,-0.5081346953879318,-0.8661526987879736,None
510,30.908,0.1826934814453125,-1.0270538330078125,-0.1802825927734375,-0.17289038267217108,-0.17257378349491148,None
511,30.958,0.17950439453125,-0.9251708984375,-0.1693267822265625,-0.18003173131239653,-0.18746905625733606,None
512,31.008,0.1378936767578125,-0.9496307373046875,-0.1020355224609375,-0.10683265690053108,-0.14289504393032434,None
513,31.058,0.1371002197265625,-0.92962646484375,-0.204925537109375,-0.21527028782604396,-0.14255030493419377,None
514,31.108,-0.0093231201171875,-1.0326690673828125,-0.1776885986328125,-0.16957530870577048,0.00889707279884111,None
515,31.158,-0.00775146484375,-0.9879608154296875,-0.116058349609375,-0.1166703675929849,0.007792104576504935,None
516,31.207,0.0742950439453125,-0.831329345703125,0.0098876953125,0.011892995314746586,-0.08900795741055775,None
517,31.257,0.2224273681640625,-0.6458740234375,0.10296630859375,0.15743360349306346,-0.3219768865194141,None
518,31.307,0.159881591796875,-0.67303466796875,0.39422607421875,0.5054222549582444,-0.20080303860501622,None
519,31.357,-0.2025299072265625,-1.3057861328125,-0.371673583984375,0.5278240797219287,-0.15481150869123164,None
520,31.447,0.5929412841796875,-2.24066162109375,0.1658782958984375,0.6085671276904375,-0.1861262686196196,None
521,31.497,1.307220458984375,-0.73419189453125,-0.06121826171875,0.6443940984172942,-0.30485271927403584,None
522,31.606,2.1990509033203125,1.2608795166015625,0.577362060546875,0.8169976942565006,-0.18262692303794845,None
523,31.796,-2.14788818359375,2.45098876953125,-0.2637481689453125,0.8245401717283284,-0.4675388127041699,None
524,31.845,0.2565765380859375,0.22662353515625,0.561920166015625,0.6683920263468403,-0.6782129356205695,None
525,31.895,0.832489013671875,-0.1287384033203125,1.22332763671875,0.6481740077565602,-0.7618394690759135,Straight
526,31.965,1.994659423828125,-0.0661468505859375,0.637298583984375,0.47179381931596803,-0.7511521017592946,None
527,32.015,0.9530029296875,-1.4450225830078125,0.3535919189453125,0.31790066514083487,-0.7013526672229036,None
528,32.115,0.71435546875,-2.1670379638671875,0.8029632568359375,0.44966355947654174,-0.764338790907515,None
529,32.164,2.2631378173828125,-0.44158935546875,0.0859222412109375,0.6542716841062279,-0.8372760040274833,None
530,32.434,-2.1259765625,1.0217742919921875,-0.7347869873046875,0.35442483071675346,-0.9396915322949458,Straight
531,32.483,0.14422607421875,0.0249786376953125,1.2796630859375,0.36970195576576326,-0.9892190606811031,None
532,32.533,0.6840057373046875,0.005706787109375,0.6748504638671875,0.23411359837683307,-0.9993689308274394,None
533,32.583,1.608642578125,-0.403656005859375,0.9137725830078125,0.10627436639917776,-0.9997967815126058,None
534,32.633,1.6586456298828125,-0.148956298828125,0.4526214599609375,-0.036902676189381714,-0.9995750530578614,None
535,32.683,1.5336761474609375,-0.1231231689453125,0.83367919921875,-0.14943892084667118,-0.9993166229668098,None
536,32.733,0.73431396484375,-0.750518798828125,0.286865234375,0.35703122889168315,-0.6746237458583773,None
537,32.832,0.7434844970703125,-2.1473846435546875,1.2782135009765625,0.4736233491986749,-0.7114996764195598,None
538,33.019,-9.30572509765625,3.4272003173828125,-0.0955963134765625,0.6316597373233793,-0.29277148001587117,None
539,33.121,-1.14959716796875,2.0279541015625,-0.810943603515625,0.32689331979487096,-0.5327945461753735,None
540,33.171,-0.8643035888671875,0.206695556640625,1.5614166259765625,0.36105648172480875,-0.6149223148780345,None
541,33.221,0.230438232421875,0.03045654296875,0.6647796630859375,0.09621715703109494,-0.685405825031626,Straight
542,33.271,1.09747314453125,-0.419097900390625,0.4553680419921875,-0.13001857356533808,-0.741673727004597,None
543,33.321,1.8691864013671875,-0.53173828125,0.406341552734375,-0.28638730208360585,-0.7691946112015198,None
544,33.371,1.3754730224609375,-0.421295166015625,-0.350311279296875,-0.4420847948863403,-0.7328158673458214,None
545,33.42,0.9858245849609375,-0.30712890625,0.137847900390625,-0.45732413085534074,-0.6770456799141349,None
546,33.47,0.440948486328125,-1.0404205322265625,0.3238067626953125,-0.4767060216078057,-0.5690488493533062,None
547,33.55,-0.448272705078125,-2.07611083984375,0.6763916015625,-0.38985873939523885,-0.5939479630237431,None
548,33.6,0.4001007080078125,-0.895782470703125,0.4765777587890625,0.46968804022500976,-0.36682826114357714,None
549,33.65,0.5606842041015625,-0.366485595703125,-0.1271820068359375,-0.3278507991588549,-0.8223565584719538,None
550,33.7,0.4139862060546875,-0.8469390869140625,0.3524627685546875,0.38421732582401263,-0.41133741272163843,None
551,33.779,0.2836151123046875,-2.1613616943359375,0.1211090087890625,0.33618185230854686,-0.46808561006352245,None
552,33.829,2.1645355224609375,0.3490142822265625,0.1361083984375,0.38416361633115637,-0.6093498405089733,None
553,33.893,2.2277984619140625,0.886474609375,0.668914794921875,0.5798998368102171,-0.6585095257000451,None
554,33.943,-1.38330078125,1.263458251953125,0.4696502685546875,0.7529950960621734,-0.4448994770638,None
555,34.068,-1.9490203857421875,0.5860748291015625,1.953460693359375,0.8063515250763729,-0.621699708663326,None
556,34.118,-1.6816864013671875,0.465057373046875,0.1057586669921875,0.6644533327191376,-0.7492142693035344,None
557,34.168,0.4805145263671875,-0.321990966796875,1.0141448974609375,0.5792332556074291,-0.8567630104468085,Straight
558,34.218,1.101470947265625,-0.523834228515625,0.7210540771484375,0.40113696444301833,-0.9119614286087278,None
559,34.268,1.3347625732421875,-0.4370880126953125,0.4593048095703125,0.23784563077688103,-0.9478067908196965,None
560,34.318,1.2555999755859375,-0.161163330078125,0.2918853759765625,0.17299540596766086,-0.9556551559540992,None
561,34.367,0.789276123046875,-0.0910186767578125,-0.0945892333984375,0.09459933769454681,-0.9307982192973913,None
562,34.417,0.552398681640625,-0.492279052734375,0.234222412109375,0.4296402102376835,-0.7117552197936243,None
563,34.537,0.7043304443359375,-2.4681549072265625,-0.42083740234375,0.3752985009071035,-0.7363572732962341,None
564,34.587,1.92120361328125,-0.4856719970703125,0.068603515625,0.4174784943356272,-0.8444314414694694,None
565,34.806,-4.7794342041015625,-2.986358642578125,-4.6338043212890625,0.29435036740432724,-0.7419551953550994,None
566,34.876,-1.769073486328125,2.212799072265625,-0.2909698486328125,0.36883888555107647,-0.8822492337171308,None
567,34.926,-1.372802734375,0.112457275390625,0.15826416015625,0.2174200436062222,-0.9506637204018888,Straight
568,34.975,-0.061370849609375,-0.487091064453125,0.971649169921875,0.2755852865513842,-0.9832301954301423,None
569,35.025,0.85980224609375,-0.38336181640625,0.5099029541015625,0.07931227369978759,-0.9957740949994403,None
570,35.075,1.42694091796875,-0.7084503173828125,0.7265167236328125,-0.03609960174400554,-0.9992096557614413,None
571,35.125,1.227142333984375,-0.584197998046875,0.521240234375,-0.1534807933494635,-0.9991727358972096,None
572,35.175,0.977813720703125,-0.799102783203125,0.7107696533203125,-0.23120970933066445,-0.9954102671688096,None
573,35.225,0.639068603515625,-0.933197021484375,0.21710205078125,-0.34407952417871657,-0.988426794401387,None
574,35.275,-0.101837158203125,-1.564239501953125,-0.19256591796875,-0.4017940708857142,-0.9723836273025219,None
575,35.324,-0.1151580810546875,-1.4044647216796875,0.320953369140625,-0.33948959284014335,-0.9616787073223385,None
576,35.374,0.032073974609375,-0.9136199951171875,0.38677978515625,0.3898522128976176,-0.03231187680609378,None
577,35.424,0.2176055908203125,-0.5966796875,0.342376708984375,0.49769079483033446,-0.3015905260510842,None
578,35.474,0.2184295654296875,-0.58935546875,0.357635498046875,0.5187794288767739,-0.30205043978459356,None
579,35.524,0.2001495361328125,-0.8557586669921875,0.3524627685546875,0.3808343851584465,-0.2113742774839013,None
580,35.574,-0.0446929931640625,-1.0929107666015625,0.2595062255859375,0.37291646878573986,-0.1932683968172863,None
581,35.623,0.058349609375,-0.9810638427734375,0.285675048828125,0.27957735440883613,-0.05701126713805,None
582,35.673,0.1563262939453125,-1.29638671875,0.1939544677734375,0.2212240605743894,-0.06987083240603448,None
583,35.753,0.6315155029296875,-2.0093841552734375,0.118865966796875,0.24776905222907336,-0.16463408164707338,None
584,35.803,1.79071044921875,-0.8576202392578125,0.5300750732421875,0.392839291865176,-0.2709859038820111,None
585,36.102,-1.9669647216796875,2.1141204833984375,-0.55706787109375,0.08192652569754387,-0.517801266234705,None
586,36.152,-0.8737335205078125,-0.0194091796875,0.7762908935546875,-0.06691062439268794,-0.6330025563526208,None
587,36.202,0.6372222900390625,-0.4104461669921875,0.7003326416015625,-0.37224103358587,-0.7252509776168905,Straight
588,36.251,0.829071044921875,-0.8968505859375,0.5889739990234375,-0.6260221568653282,-0.7701140908265174,None
589,36.301,0.988311767578125,-1.0464935302734375,-0.0453643798828125,-0.8024343815669966,-0.8037727877048106,None
590,36.351,0.759979248046875,-1.282989501953125,-0.6093902587890625,-0.8469138036315285,-0.7955294979879076,None
591,36.401,0.2303619384765625,-1.45184326171875,-0.2254791259765625,-0.8335574715345406,-0.7865294292370474,None
592,36.451,0.1483612060546875,-1.12274169921875,-0.3928070068359375,-0.8423197670703522,-0.7870588380755293,None
593,36.501,0.10540771484375,-0.9185333251953125,-0.21234130859375,-0.22523420633230298,-0.11111546995528564,None
594,36.55,0.0986175537109375,-0.8087615966796875,-0.2139434814453125,-0.25573564145248545,-0.11707110027992869,None
595,36.6,0.15704345703125,-0.779144287109375,-0.22467041015625,-0.27706644122932833,-0.19013510762707725,None
596,36.65,0.0384979248046875,-0.8659210205078125,-0.2575225830078125,-0.28505834605950386,-0.042575698647615325,None
597,36.7,-0.02386474609375,-1.038909912109375,-0.136199951171875,-0.1299866280531213,0.02277015193873628,None
598,36.75,-0.08148193359375,-1.1142425537109375,-0.1654205322265625,-0.12488408287810739,0.04187385949263846,None
599,36.8,0.00665283203125,-1.00762939453125,-0.03558349609375,-0.03529207188695034,-0.0065982025665706455,None
600,36.85,0.00439453125,-0.9726715087890625,-0.1268463134765625,-0.1293152431560486,-0.004480021205904244,None
601,36.899,0.0321502685546875,-0.9383392333984375,-0.17327880859375,-0.18159506094376146,-0.033674163049727916,None
602,36.949,-0.160614013671875,-1.0101318359375,-0.2902679443359375,-0.2761800292423067,0.15106497209645348,None
603,36.999,-0.181121826171875,-0.970001220703125,0.09912109375,0.10165718738972987,0.18263181538809883,None
604,37.049,-0.1030120849609375,-0.9084014892578125,0.6631622314453125,0.21489651381571517,0.18518927677193683,None
605,37.099,0.03436279296875,-0.7723846435546875,0.5373687744140625,0.571105824732451,-0.03649582600078875,None
606,37.149,0.2795867919921875,-0.5402984619140625,0.300140380859375,0.48561148869559784,-0.41214964294183926,None
607,37.198,0.147918701171875,-0.465179443359375,-0.003936767578125,-0.008462597960598263,-0.3030209020012388,None
608,37.248,-0.5473480224609375,-1.0095977783203125,0.6154327392578125,-0.055674871791699845,-0.19878329742422,None
609,37.298,-0.4638671875,-1.4712677001953125,-0.1094818115234375,-0.17466745292757596,-0.19425528677886256,None
610,37.398,0.6504974365234375,-2.089202880859375,-0.1541595458984375,-0.09255134697619699,-0.30918876245343774,None
611,37.448,1.4303131103515625,-1.0163726806640625,0.2590179443359375,0.17811502897114848,-0.3758850038371839,None
612,37.497,1.6458587646484375,-0.550506591796875,0.1517791748046875,0.5084640452232653,-0.4096485455074786,None
613,37.577,2.183624267578125,0.578704833984375,-0.43853759765625,0.757937448615953,-0.44999174002457254,None
614,37.797,-0.06793212890625,2.09417724609375,-2.1417083740234375,0.5587903235359841,-0.5917642576208323,None
615,37.846,-0.31988525390625,0.4623870849609375,2.3919677734375,0.5618026848627052,-0.6142818432440065,Straight
616,37.896,-0.22686767578125,0.0440673828125,1.17706298828125,0.18703418102310757,-0.6650685357871546,None
617,37.946,0.22320556640625,-0.63873291015625,0.368560791015625,0.4997845499262484,-0.2896972368515673,None
618,37.996,0.7960205078125,-1.0686187744140625,1.049102783203125,0.3007811984798618,-0.35227082464407694,None
619,38.046,0.6108856201171875,-0.9326629638671875,0.1224212646484375,-0.0028316093922998624,-0.40867955151208213,None
620,38.096,0.9656524658203125,-0.9651947021484375,-0.1593017578125,-0.25897532589689837,-0.4767245314357139,None
621,38.145,0.7711944580078125,-0.93939208984375,-0.3291015625,-0.3504596077903984,-0.5265769774134478,None
622,38.195,0.704559326171875,-0.8731536865234375,-0.0100860595703125,-0.4167307949337374,-0.5398495780836872,None
623,38.245,0.2484130859375,-0.8104705810546875,-0.867767333984375,-0.5151628836952109,-0.5453463325167596,None
624,38.295,0.36114501953125,-0.746368408203125,-0.547119140625,-0.5912106818957431,-0.36354674828916644,None
625,38.345,0.1419830322265625,-0.8085479736328125,-0.5287322998046875,-0.5472974495717842,-0.14540644188152843,None
626,38.395,0.0552978515625,-0.887603759765625,-0.49267578125,-0.48531363769404473,-0.054390892615412814,None
627,38.444,0.0585174560546875,-0.857208251953125,-0.4930572509765625,-0.4985946184256908,-0.059071313964428225,None
628,38.494,0.0689849853515625,-0.8481597900390625,-0.4503173828125,-0.4689379592264198,-0.07165285830579302,None
629,38.544,0.0766448974609375,-0.7411956787109375,-0.690155029296875,-0.6814588802164836,-0.07546335664271857,None
630,38.594,0.1720428466796875,-0.6740264892578125,-0.74383544921875,-0.7410238242235304,-0.16892931682175638,None
631,38.644,-0.1719818115234375,-1.0675201416015625,-0.63250732421875,-0.7456745825051201,-0.15899734172817204,None
632,38.694,0.2224578857421875,-0.7294769287109375,-0.6938629150390625,-0.6891982404296075,-0.21575799900173395,None
633,38.744,0.1810760498046875,-0.7891082763671875,-0.6475677490234375,-0.6343718143216508,-0.17465951659354637,None
634,38.793,0.2244415283203125,-0.7845611572265625,-0.6412200927734375,-0.632827676965672,-0.2162621736682638,None
635,38.843,0.1398162841796875,-0.7871246337890625,-0.6911163330078125,-0.6597917438801674,-0.132305741973089,None
636,38.893,0.22442626953125,-0.6586151123046875,-0.6564483642578125,-0.7059407672463008,-0.23461058716340946,None
637,38.943,0.283782958984375,-0.66082763671875,-0.531036376953125,-0.6264012638710089,-0.3174326747537288,None
638,38.993,0.1865692138671875,-0.708099365234375,-0.5809783935546875,-0.6342995071920554,-0.1995936481185999,None
639,39.043,0.15484619140625,-0.7654266357421875,-0.5667877197265625,-0.5950953597203862,-0.16047283521382955,None
640,39.092,0.179718017578125,-0.816680908203125,-0.4710845947265625,-0.4996608042315515,-0.18724823247953892,None
641,39.142,0.1321258544921875,-0.7316741943359375,-0.6245269775390625,-0.6492185152680017,-0.1360721346160032,None
642,39.192,-0.0202789306640625,-0.789642333984375,-0.6839752197265625,-0.6547219861774078,0.0194079560434125,None
643,39.242,-0.2210235595703125,-0.8915863037109375,-0.66021728515625,-0.6478484637810725,0.05949533927901877,None
644,39.292,-0.1439666748046875,-0.9542694091796875,-0.603363037109375,-0.6270113577145037,0.04665904188184076,None
645,39.342,-0.146087646484375,-0.6987152099609375,-0.73297119140625,-0.7238185713183937,0.14278528004834845,None
646,39.391,0.2343597412109375,-0.81854248046875,-0.6082763671875,-0.5964606297603298,-0.223969334254552,None
647,39.441,-0.1061248779296875,-0.73370361328125,-0.589080810546875,-0.6260665793792681,0.11207736532638204,None
648,39.491,0.1483612060546875,-0.7516632080078125,-0.595794677734375,-0.6211693978371684,-0.15286199797234487,None
649,39.541,0.203643798828125,-0.815887451171875,-0.6409149169921875,-0.6177384098150638,-0.1926046581656607,None
650,39.591,0.2093963623046875,-0.72625732421875,-0.743072509765625,-0.7151521659315228,-0.1975566358634279,None
651,39.641,0.084625244140625,-0.7091217041015625,-0.649810791015625,-0.6756017747200834,-0.08764543335055598,None
652,39.691,0.11431884765625,-0.7874908447265625,-0.641082763671875,-0.6313317232294712,-0.11187330381810882,None
653,39.74,0.062530517578125,-0.7813720703125,-0.6952362060546875,-0.6647286914015911,-0.059680062717214905,None
654,39.79,0.216461181640625,-0.729248046875,-0.6689453125,-0.675981536790876,-0.21368569472275745,None
