index,time,acc x,acc y,acc z,ori x,ori z,punch
0,0,-0.6123809814453125,-0.4412841796875,-0.8100738525390625,-0.8781571513900152,-0.5530739688059908,None
1,0.05,-0.24456787109375,-0.2926177978515625,-1.002716064453125,-0.8912450822493427,-0.5257807082785538,None
2,0.1,-0.8310089111328125,-0.6997222900390625,-1.14324951171875,-0.8790928550793657,-0.5702227632891022,None
3,0.15,-0.1460113525390625,-0.31884765625,-0.3380889892578125,-0.7275055843573113,0.299743220838586,None
4,0.199,0.010345458984375,-0.263336181640625,-0.9863739013671875,-0.7032660436492179,0.20112515442518783,None
5,0.249,0.34954833984375,0.150238037109375,-0.6288299560546875,-0.6881148505611202,0.1926975689120254,None
6,0.299,0.3436431884765625,-0.101409912109375,-1.056793212890625,-0.6716724491158811,0.20002904480462286,None
7,0.349,-0.14874267578125,-0.4330291748046875,-1.1072998046875,-0.654708303000499,0.2702975206775837,None
8,0.399,-0.3299560546875,-0.9448089599609375,-0.6918182373046875,-0.6422041278464898,0.25630381644706984,None
9,0.449,-0.0918731689453125,-0.775665283203125,-0.9850006103515625,-0.5945548012228415,0.25968380239227246,None
10,0.498,-0.38983154296875,-0.5976409912109375,-0.96527099609375,-0.5135420078827443,0.26939726210117404,None
11,0.548,-0.9480743408203125,-0.7421112060546875,-0.665008544921875,-0.43656913519050145,0.23491517525222375,None
12,0.598,-0.70196533203125,-0.736602783203125,-0.483428955078125,-0.4509514837992243,0.16751196417239114,None
13,0.648,-0.238922119140625,-0.51239013671875,-0.6341400146484375,-0.7778211787486443,0.28122871052564535,None
14,0.698,-0.4458160400390625,-0.58343505859375,-0.7376708984375,-0.7843326127413862,0.42833144921899413,None
15,0.748,-0.2023162841796875,-0.656341552734375,-0.4265289306640625,-0.5449047549211417,0.250242182399629,None
16,0.798,-0.3349761962890625,-0.7819366455078125,-0.5670318603515625,-0.5870542898155212,0.32765948445517595,None
17,0.847,-0.2773590087890625,-0.9399871826171875,-0.3115081787109375,-0.31457237070690525,0.269707867139777,None
18,0.897,-0.1618804931640625,-0.8419036865234375,-0.4581756591796875,-0.47801203607384357,0.16653067021571644,None
19,0.947,-0.386566162109375,-0.9929962158203125,-0.4383087158203125,-0.47914820425439425,0.06327372784161381,None
20,0.997,0.076202392578125,-0.8063201904296875,-0.55413818359375,-0.5663851819392869,-0.07765136769088493,None
21,1.047,-0.2603607177734375,-0.963348388671875,-0.30889892578125,-0.30533827275175635,0.24923788348566203,None
22,1.097,-0.1949005126953125,-0.8375701904296875,-0.370452880859375,-0.404496099569559,0.20814991641884006,None
23,1.146,0.264312744140625,-0.7020416259765625,-0.101959228515625,-0.14372461084207927,-0.34913675065986405,None
24,1.196,0.1112060546875,-0.6869354248046875,-0.2544403076171875,-0.3473381002576959,-0.1500885040532213,None
25,1.246,-0.179412841796875,-1.0373382568359375,-0.124603271484375,-0.1192609737490619,0.1692434202393299,None
26,1.296,0.47174072265625,-1.100830078125,-0.3735198974609375,-0.2309667205824216,0.20473357987746194,None
27,1.346,1.52587890625,-1.477691650390625,-0.87738037109375,-0.24112547468920154,0.30220604299102827,None
28,1.482,0.7792510986328125,1.20928955078125,-2.29638671875,-0.07666624037903245,0.35435834406864963,None
29,1.581,-2.2509765625,-0.5207977294921875,1.545013427734375,-0.034185941589599256,0.37756251391731593,None
30,1.631,-0.8696746826171875,-1.2209320068359375,-1.0311737060546875,-0.035226996137605555,0.38756291078165933,Hook
31,1.681,-0.62164306640625,-1.7591705322265625,-1.116546630859375,0.036759078602759586,0.3947350389243331,None
32,1.731,-0.6474609375,-1.0086212158203125,-0.3550872802734375,0.11142580791317142,0.3620329194322247,None
33,1.781,-0.0878143310546875,-0.4996795654296875,-0.167236328125,-0.3173829676441101,0.16438780602594288,None
34,1.83,0.106842041015625,-0.5260467529296875,-0.0169830322265625,-0.03226745258017924,-0.1989403330342199,None
35,1.88,0.1110382080078125,-0.700927734375,0.1306304931640625,0.18321337124548942,-0.15387971274630033,None
36,1.93,0.0877838134765625,-0.7897186279296875,0.1096954345703125,0.13758349626406924,-0.10943991282675586,None
37,1.98,0.1353759765625,-0.6284942626953125,-0.4593658447265625,-0.5900848973838537,-0.17132786626389965,None
38,2.03,0.0933837890625,-0.735076904296875,-0.5136871337890625,-0.5728135350845676,-0.10357241410453194,None
39,2.08,-0.0776214599609375,-1.1606597900390625,-0.741943359375,-0.6174550625098294,-0.1404848498303949,None
40,2.13,0.563720703125,-1.6516265869140625,-0.4122314453125,-0.6666612108309073,-0.15958967624308315,None
41,2.498,-2.1071319580078125,-0.1659393310546875,-0.6180877685546875,-0.7105787918052359,-0.21736890017786467,None
42,2.548,-1.3346710205078125,-1.2328033447265625,-1.8177032470703125,-0.666292829879383,-0.27469612295678214,Hook
43,2.598,-1.03228759765625,-1.1645965576171875,-1.318389892578125,-0.6767900648662748,-0.3448505278237616,None
44,2.648,-0.183349609375,-0.79669189453125,-0.880340576171875,-0.6532100304606744,-0.44802556674058674,None
45,2.698,0.609283447265625,-0.777740478515625,-0.22442626953125,-0.27724966917673133,-0.6013751272148785,None
46,2.748,0.598052978515625,-0.7004241943359375,-0.1451568603515625,-0.20292936436587994,-0.6414264161732923,None
47,2.797,0.67340087890625,-0.759613037109375,0.1000213623046875,0.1305472439347847,-0.6601699783916213,None
48,2.847,0.667144775390625,-0.6578216552734375,0.0111083984375,0.016884234289199468,-0.7120146637791607,None
49,2.897,0.4205474853515625,-0.8723602294921875,0.0680389404296875,0.07775794268417818,-0.43318552255124587,None
50,2.947,0.549163818359375,-0.9955291748046875,-0.1131591796875,0.03148417252673204,-0.4379500080794074,None
51,2.997,0.75128173828125,-1.1628570556640625,-0.1051788330078125,0.01072105599571469,-0.4053796837595624,None
52,3.047,0.6594696044921875,-1.2833251953125,0.0733489990234375,0.010685811078758033,-0.35389334742206696,None
53,3.096,0.665771484375,-1.4417724609375,0.2554473876953125,-0.07501139303385344,-0.28320033170119324,None
54,3.146,1.158172607421875,-1.693939208984375,0.494476318359375,-0.17968016615660673,-0.19524228377295474,None
55,3.475,-2.8601531982421875,0.0458221435546875,0.3411712646484375,-0.13043093320471216,-0.29902332426241185,None
56,3.575,-0.66937255859375,-1.08282470703125,-1.9833984375,-0.09700356774296287,-0.3637697710774178,Hook
57,3.625,-0.4749298095703125,-1.026519775390625,-1.035400390625,0.055389523069210474,-0.4266657999469736,None
58,3.675,0.404510498046875,-0.690032958984375,-0.6708984375,-0.6970960526522295,-0.38747230525967297,None
59,3.724,0.958038330078125,-0.6776275634765625,-0.3125,-0.6772681388551528,-0.4793875697076011,None
60,3.774,0.827301025390625,-0.7887420654296875,0.1280517578125,-0.5976904037609581,-0.5054524236057403,None
61,3.824,0.940643310546875,-0.71697998046875,0.2071685791015625,-0.5769960893725921,-0.5299010247277472,None
62,3.874,0.870147705078125,-0.6545562744140625,0.141265869140625,0.2109621108039585,-0.7924996995209089,None
63,3.924,0.5762939453125,-0.8173675537109375,0.449951171875,0.4822470517272722,-0.5254997764528614,None
64,3.974,0.4122772216796875,-0.829315185546875,0.5099945068359375,0.5238341906623967,-0.389943196363605,None
65,4.023,0.22216796875,-1.063751220703125,0.7470855712890625,0.4690601133589069,-0.3585054207409628,None
66,4.073,0.2593841552734375,-1.3676605224609375,0.8986358642578125,0.35721457865484024,-0.3298717393195968,None
67,4.123,0.4546051025390625,-1.637664794921875,0.6111297607421875,0.25772030475499247,-0.26178306863761863,None
68,4.173,2.0647125244140625,-1.6384429931640625,-0.7070159912109375,0.1595687294826435,-0.1634302701456064,None
69,4.462,-2.1689300537109375,0.10491943359375,-0.765472412109375,0.11532037961395318,-0.3274593432398953,None
70,4.512,-0.6896820068359375,-0.71441650390625,-1.5695648193359375,0.07862706796719975,-0.45183287835315206,Hook
71,4.562,-0.8003997802734375,-1.079315185546875,-1.7241973876953125,0.11652101269489645,-0.521482468093208,None
72,4.612,-0.5993194580078125,-1.003173828125,-0.5488739013671875,0.28103685614704593,-0.6133729016601772,None
73,4.661,0.030609130859375,-0.6450042724609375,-0.432769775390625,-0.5571639292824215,-0.039376772258871644,None
74,4.711,0.8132171630859375,-0.383453369140625,-0.68890380859375,-0.5702299753423581,-0.1606590690060103,None
75,4.761,1.2688751220703125,-0.5108795166015625,-0.153656005859375,-0.532702232859412,-0.22884858887066736,None
76,4.811,1.1758575439453125,-0.4237213134765625,0.13623046875,-0.5319028174430414,-0.2622823615477297,None
77,4.861,0.98712158203125,-0.37249755859375,0.014312744140625,-0.5298904440458895,-0.2297695440536815,None
78,4.911,0.503997802734375,-0.6628875732421875,0.0258636474609375,0.03898697887437349,-0.6049462548305868,None
79,4.96,0.162322998046875,-0.959625244140625,0.1534271240234375,0.15787721019745105,-0.16474872049329442,None
80,5.01,0.182403564453125,-1.4384307861328125,-0.3634796142578125,-0.0637192090409318,-0.05501495960650426,None
81,5.06,0.204681396484375,-1.6610260009765625,-0.6577911376953125,-0.1302232737878184,-0.009790186273222902,None
82,5.11,0.4048309326171875,-1.8059844970703125,-0.5572509765625,-0.13417575781152646,0.07414544193018639,None
83,5.439,-2.069915771484375,0.222869873046875,0.15533447265625,-0.22403485381074992,0.03505012313303998,None
84,5.489,-1.49560546875,-0.8993988037109375,-1.1713409423828125,-0.3219722864653028,-0.06676831660155283,Hook
85,5.539,-1.2886505126953125,-0.862060546875,-1.406219482421875,-0.3724262208555712,-0.12832198157680966,None
86,5.588,-1.1070556640625,-0.939697265625,-1.102447509765625,-0.37153855644101036,-0.28425531358622985,None
87,5.638,-0.1056060791015625,-0.6058197021484375,-1.038848876953125,-0.40054482923479995,-0.42799521860895445,None
88,5.688,0.02392578125,-0.664398193359375,-1.152984619140625,-0.3682807418051316,-0.5526236345052182,None
89,5.738,0.3051910400390625,-0.583251953125,-0.6954193115234375,-0.7661931452156033,-0.3187154468881643,None
90,5.788,0.400360107421875,-0.629638671875,-0.216156005859375,-0.3247005130284213,-0.5153803016292683,None
91,5.838,0.71624755859375,-0.5881195068359375,-0.20428466796875,-0.3281213489987747,-0.7547282220324504,None
92,5.888,0.8178253173828125,-0.6060333251953125,-0.0533599853515625,-0.08770861766226766,-0.8023442302916134,None
93,5.937,0.7684326171875,-0.909423828125,0.0274658203125,-0.11550453798632106,-0.7815449068536253,None
94,5.987,0.66131591796875,-1.400146484375,0.1223297119140625,-0.17027957528258753,-0.7369743954447415,None
95,6.037,0.9044952392578125,-1.677764892578125,0.263641357421875,-0.276651645689471,-0.7078173489459086,None
96,6.087,1.64837646484375,-1.4281768798828125,-0.363037109375,-0.3335581754892274,-0.674624312511134,None
97,6.466,-1.9280242919921875,-1.11328125,-1.3918914794921875,-0.3667638488371587,-0.70881187118563,Hook
98,6.525,-0.800018310546875,-0.9717559814453125,-1.9714508056640625,-0.3971708487597077,-0.8120671527494625,None
99,6.575,-0.461517333984375,-0.967864990234375,-0.5003662109375,-0.3180377588075564,-0.8557271637532583,None
100,6.625,0.1052703857421875,-0.616485595703125,-0.6383819580078125,-0.7193356872605571,-0.11779398332890245,None
101,6.675,0.353240966796875,-0.6490936279296875,-0.7144317626953125,-0.7401410365631983,-0.3436634468363467,None
102,6.725,0.574615478515625,-0.5482025146484375,-0.3545989990234375,-0.5431214194459484,-0.6606742501281059,None
103,6.775,0.6421051025390625,-0.4681396484375,-0.02978515625,-0.0634961222421353,-0.8074776347048744,None
104,6.825,0.5652313232421875,-0.555267333984375,0.0675506591796875,0.12076394357654494,-0.7107880656901183,None
105,6.874,0.6968841552734375,-0.770660400390625,0.125213623046875,0.1603727446432387,-0.6658942456679553,None
106,6.924,0.6123046875,-1.5621185302734375,-0.1602783203125,-0.007043087550576027,-0.6376208524652405,None
107,6.974,0.69573974609375,-1.6297607421875,-0.0417633056640625,-0.07273956763016987,-0.5737502944326891,None
108,7.024,0.7118682861328125,-1.65557861328125,0.098114013671875,-0.16733572895727591,-0.4683986992312196,None
109,7.074,1.0662994384765625,-1.31103515625,-0.1798095703125,-0.19794715691714335,-0.3947515438550698,None
110,7.124,1.6250457763671875,-1.2889862060546875,-0.3125,-0.2143708745686405,-0.2862137416240232,None
111,7.403,-2.0689239501953125,-0.15252685546875,-1.1952362060546875,-0.2713317011217676,-0.3759498250356335,None
112,7.453,-0.9571533203125,-0.9575042724609375,-0.9929351806640625,-0.2810115833330084,-0.46527842107525363,Hook
113,7.502,-0.6171875,-0.810150146484375,-1.7363128662109375,-0.22587290409249294,-0.5460702707175893,None
114,7.552,0.1185150146484375,-0.9189605712890625,-0.751617431640625,0.06319615868511702,-0.5732354367459092,None
115,7.602,-0.0389862060546875,-1.147247314453125,0.339141845703125,0.3130285784386864,-0.5440610095261601,None
116,7.652,0.324432373046875,-0.747833251953125,-0.0636444091796875,-0.08479854204025918,-0.3967833919758414,None
117,7.702,0.526336669921875,-0.37567138671875,0.0623931884765625,0.16384016754814226,-0.8101781920399935,None
118,7.752,0.487518310546875,-0.429351806640625,0.2708740234375,0.5335767673451588,-0.692655673396188,None
119,7.801,0.3352203369140625,-0.727752685546875,0.172210693359375,0.23027419823545256,-0.4090325072627139,None
120,7.851,0.506256103515625,-1.069549560546875,-0.1925201416015625,0.1696634987705196,-0.3415583229262597,None
121,7.901,0.878265380859375,-1.382080078125,0.40850830078125,0.28248112541841297,-0.248597336396646,None
122,7.951,0.821258544921875,-1.8759002685546875,0.9441070556640625,0.48338722084353203,-0.13066051063447007,None
123,8.28,-1.1713714599609375,2.5964202880859375,1.024444580078125,0.5133147674183609,-0.10575862293481658,None
124,8.33,-2.0041656494140625,0.0030670166015625,0.9976043701171875,0.4689036722568764,0.04467020569518534,Hook
125,8.38,-1.5357513427734375,-0.1221160888671875,1.1016082763671875,0.3686548059642659,0.15994806826408312,None
126,8.429,-0.6794281005859375,0.24578857421875,1.1660614013671875,0.23628707418295575,0.29922037648171285,None
127,8.479,-0.7165679931640625,0.0681610107421875,1.065887451171875,0.017778746315221444,0.4535493798893905,None
128,8.529,-0.496978759765625,-0.3287811279296875,0.18267822265625,0.48568770913016696,0.7973826299579373,None
129,8.579,0.0743408203125,-0.6142578125,-0.1713714599609375,-0.2687272092586594,-0.11578957492242983,None
130,8.629,0.056915283203125,-0.8982086181640625,-0.2325286865234375,-0.2506185554301607,-0.06122798954204192,None
131,8.679,0.45654296875,-0.748199462890625,0.3763885498046875,0.4493984929495286,-0.4786127754873609,None
132,8.728,0.4811553955078125,-0.6005401611328125,-0.1504058837890625,-0.24294735625549826,-0.6136562566682133,None
133,8.778,0.906494140625,-0.3753204345703125,0.1503753662109375,-0.21893906556381318,-0.5418807910593197,None
134,8.828,0.74615478515625,-0.7266387939453125,0.8278350830078125,-0.2511773941338944,-0.4416160083530585,None
135,8.878,1.0999298095703125,-0.9135589599609375,0.498077392578125,-0.30156496220250234,-0.3058983609068804,None
136,8.928,0.247833251953125,-1.8531951904296875,0.6746673583984375,-0.19729025048968468,-0.1875130435737537,None
137,9.005,1.092926025390625,-2.11474609375,0.346710205078125,-0.09934371057198056,-0.10869853542813321,None
138,9.297,-1.4959869384765625,2.0200653076171875,1.493621826171875,-0.04420613525745102,-0.15963797517715048,None
139,9.346,-1.9047698974609375,-0.260040283203125,1.2919464111328125,-0.15459941199714025,-0.031923659135429806,Hook
140,9.396,-0.9505615234375,-0.4527130126953125,1.1839599609375,-0.3936430583103375,0.06007899678302273,None
141,9.446,-0.7095489501953125,-0.572509765625,0.7830657958984375,-0.684114997980764,0.13256725387226406,None
142,9.496,-0.5973358154296875,-0.62548828125,0.0075836181640625,0.012123425906521709,0.6906178601459007,None
143,9.546,-0.2402801513671875,-0.6824493408203125,-0.1195068359375,-0.17248984832218456,0.32766213653594584,None
144,9.596,0.4012908935546875,-0.23284912109375,-1.2244110107421875,-0.4835717860590787,0.17505003003808753,None
145,9.646,0.3734130859375,-0.7579193115234375,-0.88116455078125,-0.5106162013976225,0.08684504400487096,None
146,9.695,0.631744384765625,-0.798583984375,-0.4583740234375,-0.502648827840327,0.006221146535500598,None
147,9.745,0.54180908203125,-0.8518524169921875,-0.52862548828125,-0.5113431824584139,-0.031217158176792013,None
148,9.795,0.5032196044921875,-0.845428466796875,-0.17474365234375,-0.20241389612782315,-0.5035937608474605,None
149,9.845,0.45556640625,-0.8314666748046875,-0.1189422607421875,-0.14160956087207097,-0.47677161791231093,None
150,9.895,0.3854217529296875,-0.84600830078125,-0.0744781494140625,-0.08769560392105497,-0.4132565904654812,None
151,9.945,0.4003143310546875,-0.9926300048828125,0.1844635009765625,0.18270510287429514,-0.3685828337644888,None
152,9.994,0.3394012451171875,-1.2693634033203125,0.1171722412109375,0.08918223596361183,-0.30508828145483263,None
153,10.044,0.998809814453125,-1.475128173828125,0.0231170654296875,0.0037979415191448517,-0.22140105270338456,None
154,10.094,1.51837158203125,-1.7732086181640625,-0.5764617919921875,-0.03204312456576793,-0.017151809122810432,None
155,10.373,-2.248992919921875,0.1047821044921875,-0.1678619384765625,-0.05146809548528007,-0.08566891588717566,None
156,10.423,-1.184967041015625,-0.7381134033203125,-1.918914794921875,0.012243749544724104,-0.12774923263935986,Hook
157,10.473,-0.6500091552734375,-1.0222625732421875,-1.6478118896484375,0.04208330195999815,-0.15470856707798955,None
158,10.523,-0.5495452880859375,-1.138336181640625,-0.8529510498046875,0.1722922064802239,-0.2515599027476613,None
159,10.573,0.208709716796875,-0.77117919921875,-0.6582794189453125,-0.6492371128809851,-0.20161577684029605,None
160,10.622,1.0255584716796875,-0.5730438232421875,-0.1960906982421875,-0.5017693041737531,-0.20967800923044003,None
161,10.672,0.5653839111328125,-0.7216644287109375,0.2295989990234375,0.3031778758696584,-0.5982398753754327,None
162,10.722,0.6175384521484375,-0.5727691650390625,0.6939697265625,0.7712400714546758,-0.5658559579277589,None
163,10.772,0.3179931640625,-0.59283447265625,0.75921630859375,0.7881770901859627,-0.3134829638550467,None
164,10.822,0.1060943603515625,-0.88739013671875,0.4468994140625,0.4497918025793024,-0.10617740474666905,None
165,10.872,-0.25396728515625,-1.582733154296875,0.6804656982421875,0.423441638018213,-0.01614064340082487,None
166,10.974,1.098968505859375,-2.702850341796875,0.069580078125,0.6506320193192173,-0.004845674447925822,None
167,11.3,-1.2997589111328125,2.205596923828125,1.3477935791015625,0.6252607016430836,-0.027310003080379033,None
168,11.36,-2.051910400390625,-0.576385498046875,1.252197265625,0.5822779334195012,0.18750162486733288,Hook
169,11.41,-1.1114654541015625,-0.16864013671875,1.0025482177734375,0.494754500174782,0.3337648804527883,None
170,11.46,-0.4969329833984375,-0.128326416015625,0.532470703125,0.30301351546773553,0.4499052127009122,None
171,11.51,-0.4092864990234375,-0.6018218994140625,0.448760986328125,0.5977765035181678,0.4786759012165175,None
172,11.559,0.071258544921875,-0.8491973876953125,0.1826629638671875,0.21029081955306636,-0.08176176596731319,None
173,11.609,0.3555145263671875,-0.770599365234375,-0.158721923828125,-0.2017371916158059,-0.4117757161410364,None
174,11.659,0.615753173828125,-0.45318603515625,0.5012054443359375,-0.28514506777398574,-0.35321995411674356,None
175,11.709,0.6478118896484375,-0.326324462890625,0.40557861328125,-0.37538894827071906,-0.26867096331794543,None
176,11.759,0.4583892822265625,-0.39263916015625,-0.0458831787109375,-0.11606856439333171,-0.7572891833916192,None
177,11.809,0.4837493896484375,-0.8506011962890625,0.083221435546875,0.09737343498914021,-0.4925813252743563,None
178,11.858,0.6208953857421875,-1.1081390380859375,-0.509124755859375,-0.1547614884190932,-0.4423222063899695,None
179,11.908,0.7521209716796875,-1.1284942626953125,-0.891021728515625,-0.40286295668916183,-0.4046645840274145,None
180,11.958,0.9689178466796875,-1.265380859375,-1.384429931640625,-0.5472331628266014,-0.38506815941137074,None
181,12.008,1.0084075927734375,-1.4405517578125,-1.0084075927734375,-0.4536195205347191,-0.3243136392569271,None
182,12.058,1.1968841552734375,-1.5194854736328125,-1.2909088134765625,-0.35911928082993416,-0.24724933505427774,None
183,12.108,1.3422393798828125,-1.279327392578125,-1.794525146484375,-0.15755100505569009,-0.17448071386677969,None
184,12.361,-1.9749603271484375,2.492828369140625,1.886016845703125,-0.278823995354225,-0.025916628099410706,None
185,12.437,-1.9488677978515625,-0.66290283203125,0.85699462890625,-0.5198569111047813,0.16467398294985047,Hook
186,12.486,-1.0378875732421875,-0.48046875,0.4902191162109375,-0.7750878596703912,0.23689991817264586,None
187,12.536,-0.357452392578125,-0.41827392578125,0.112213134765625,0.25911413596788374,0.6365675000467726,None
188,12.586,0.1318206787109375,-0.5230712890625,-0.4840545654296875,-0.6792034990057599,-0.18187975234426632,None
189,12.636,0.4477081298828125,-0.662078857421875,-0.597015380859375,-0.6696736462425752,-0.4487823761649001,None
190,12.686,0.6786956787109375,-0.5646820068359375,0.0997161865234375,0.173897667119167,-0.7638645752702987,None
191,12.736,0.7068328857421875,-0.3951416015625,-0.07275390625,-0.030064522806961414,-0.8049045012188133,None
192,12.785,0.6696624755859375,-0.7330322265625,-0.1128997802734375,-0.15222260179049746,-0.6701550742555039,None
193,12.835,0.689178466796875,-0.9737091064453125,-0.38653564453125,-0.282578714140059,-0.6803090795587426,None
194,12.885,0.6700286865234375,-1.219085693359375,-0.9247589111328125,-0.4066418670497258,-0.666920403647234,None
195,12.935,0.7646484375,-1.3048858642578125,-0.8670196533203125,-0.464474297694143,-0.6211088806360267,None
196,12.985,0.876983642578125,-1.2029571533203125,-0.909027099609375,-0.47493524518558045,-0.5470458240458207,None
197,13.035,1.2231903076171875,-1.2060394287109375,-0.5916290283203125,-0.4222562909817026,-0.44765656136183035,None
198,13.357,-2.1982269287109375,0.0507659912109375,0.04248046875,-0.4497072294683806,-0.4818566502009311,None
199,13.407,-1.014556884765625,-0.550567626953125,-1.0490570068359375,-0.5151995041678622,-0.5404562984179269,Hook
200,13.457,-0.7182464599609375,-0.7735137939453125,-1.31182861328125,-0.5739937533112784,-0.6499228496868072,None
201,13.507,-0.4512786865234375,-0.58404541015625,-1.3454132080078125,-0.5098350537230515,-0.7389984343496792,None
202,13.557,0.5115966796875,-0.616485595703125,-0.4935302734375,-0.6249589255647496,-0.5437112416161425,None
203,13.607,0.543670654296875,-0.6042022705078125,-0.4117431640625,-0.5631380051522267,-0.5966947516668437,None
204,13.656,0.8655853271484375,-0.6015625,-0.4696807861328125,-0.4992284786602249,-0.6673217146067486,None
205,13.706,0.7053680419921875,-0.5958099365234375,-0.118133544921875,-0.19448782209162033,-0.7577644554947268,None
206,13.756,0.89776611328125,-0.4203338623046875,-0.05615234375,-0.16810024246741906,-0.7836621573514252,None
207,13.806,0.7534027099609375,-0.726531982421875,0.057586669921875,0.07901458475056115,-0.7187397903753746,None
208,13.856,0.7949066162109375,-1.0637054443359375,0.1165924072265625,0.009755447501263108,-0.6947672674771296,None
209,13.906,0.74688720703125,-1.5581512451171875,-0.1541748046875,-0.012251721994383293,-0.6514041361518512,None
210,13.956,0.828826904296875,-1.785919189453125,-0.0391845703125,-0.0821388675320355,-0.5873584308854192,None
211,14.005,1.0043487548828125,-1.4037017822265625,-0.2387847900390625,-0.10180895300458045,-0.4919529899936115,None
212,14.055,1.5278778076171875,-1.2521820068359375,0.3615264892578125,-0.13003211552776955,-0.3616102057137299,None
213,14.105,1.9082183837890625,-1.303466796875,-0.69720458984375,-0.1595424364301875,-0.17719811974678543,None
214,14.4,-2.1266021728515625,0.0511016845703125,-0.8615264892578125,-0.1874224416129447,-0.25588941568557644,None
215,14.45,-0.674774169921875,-0.644317626953125,-1.2734222412109375,-0.24653429001926766,-0.40292687143017186,Hook
216,14.5,-0.319305419921875,-0.502288818359375,-1.5548858642578125,-0.31587876037291757,-0.6003776584848238,None
217,14.55,-0.0089874267578125,-0.73028564453125,-0.9080963134765625,-0.3375880094017529,-0.7289340815311715,None
218,14.6,0.40185546875,-0.4908294677734375,-0.28179931640625,-0.4979031917050201,-0.5789365504251391,None
219,14.65,0.714447021484375,-0.18927001953125,-0.5549468994140625,-0.47307811819948586,-0.7583394792603337,None
220,14.699,0.8068389892578125,-0.3485565185546875,-0.161590576171875,-0.4292777719821019,-0.851669593434886,None
221,14.749,0.867645263671875,-0.46728515625,-0.32110595703125,-0.3838555715741947,-0.9055190187562886,None
222,14.799,1.098968505859375,-0.6712799072265625,-0.1856231689453125,-0.3386718434837927,-0.9268926637275182,None
223,14.849,0.978485107421875,-0.88818359375,-0.0791778564453125,-0.2964811956837236,-0.926632887671778,None
224,14.899,1.1722869873046875,-1.095977783203125,-0.265777587890625,-0.2857437120357659,-0.9015426078345155,None
225,14.949,0.9187164306640625,-1.46990966796875,-0.2630615234375,-0.2422550453185006,-0.8523955262877213,None
226,14.998,0.5945587158203125,-1.3671722412109375,-0.4970703125,-0.20900583032793962,-0.7802392977948575,None
227,15.048,0.628631591796875,-1.2557373046875,-0.6014556884765625,-0.16032970382348594,-0.7034127956950081,None
228,15.098,0.594024658203125,-1.2299957275390625,-1.3380584716796875,-0.005157069370187394,-0.6220562475499859,None
229,15.337,-0.6390838623046875,2.358245849609375,0.6866912841796875,0.09700803909877305,-0.7899911602402795,None
230,15.387,-1.6167755126953125,0.3431396484375,0.5900115966796875,0.04109173349317306,-0.7099150486128986,None
231,15.437,-1.68914794921875,-0.2179412841796875,1.3615570068359375,0.03469156121932557,-0.5642027673321575,Hook
232,15.487,-1.064422607421875,0.076751708984375,1.2291717529296875,-0.161601688896578,-0.40555129324036787,None
233,15.537,-0.854766845703125,0.000091552734375,0.559814453125,-0.5092799415751545,-0.22933824023594257,None
234,15.587,-0.927642822265625,-0.65155029296875,0.048187255859375,-0.7917739705307281,-0.059547128822700156,None
235,15.636,-0.445831298828125,-0.8524322509765625,-0.3328399658203125,-0.363716479105363,0.4379768153755673,None
236,15.686,-0.3409881591796875,-0.7097015380859375,-0.5895843505859375,-0.6390108129449308,0.34665749255208156,None
237,15.736,0.0703125,-0.5498809814453125,-0.6441192626953125,-0.7605510481980967,-0.08273762042611382,None
238,15.786,-0.074005126953125,-0.4911956787109375,-0.54803466796875,-0.7446678658839345,0.10005335254057586,None
239,15.836,0.3260345458984375,-0.4962310791015625,-0.74212646484375,-0.8312843090003003,-0.34304310633394774,None
240,15.886,0.6967315673828125,-0.4696044921875,-0.9521942138671875,-0.8776705496163482,-0.44135394296190333,None
241,15.935,0.89105224609375,-0.6062164306640625,-0.996429443359375,-0.8904299849608469,-0.4907466338913293,None
242,15.985,0.767364501953125,-0.6963348388671875,-1.1578521728515625,-0.8505014669449413,-0.4985150618540083,None
243,16.035,0.5436553955078125,-0.7427825927734375,-0.5923919677734375,-0.6235172198343137,-0.49665664643517565,None
244,16.085,0.4703216552734375,-1.042205810546875,0.652862548828125,-0.3551131400529075,-0.42751623246862497,None
245,16.135,0.6608428955078125,-1.4603271484375,0.6731109619140625,-0.17658807116998956,-0.32739676968677994,None
246,16.185,1.320953369140625,-1.992584228515625,0.5360107421875,-0.08002720499215488,-0.21560522979610752,None
247,16.494,-1.27911376953125,2.0006256103515625,1.695892333984375,-0.050004789059083114,-0.33032958644475197,None
248,16.544,-1.1458282470703125,0.55291748046875,0.8314208984375,-0.29415296403942726,-0.3772143562491401,None
249,16.593,-0.8066558837890625,-0.080902099609375,0.147735595703125,-0.6013018310416459,-0.4554603431481369,Hook
250,16.643,-0.690032958984375,-0.5557708740234375,-0.683990478515625,-0.8333281793156202,-0.5402476400600521,None
251,16.693,-1.0203704833984375,-0.726043701171875,-0.4443206787109375,-0.9070982736099165,-0.5789410218306823,None
252,16.743,-0.6301727294921875,-0.8090667724609375,-0.563201904296875,-0.9384529383703547,-0.6579247199309806,None
253,16.793,0.010986328125,-0.90716552734375,0.2272186279296875,0.2429655829293218,-0.01174690414736943,None
254,16.843,0.415252685546875,-0.8390045166015625,0.2714996337890625,0.30787879378721955,-0.4260233548214015,None
255,16.892,0.3107452392578125,-0.9235992431640625,-0.1812591552734375,-0.19257945058299863,-0.31350796702853395,None
256,16.942,0.4595794677734375,-0.897613525390625,0.1236419677734375,0.1364567499994209,-0.4523519293692317,None
257,16.992,0.2087554931640625,-0.95135498046875,-0.2832794189453125,-0.28538135543252646,-0.20580258503551913,None
258,17.042,0.579681396484375,-0.864288330078125,-0.1602325439453125,-0.18228630590286218,-0.5505318823802333,None
259,17.092,0.2978057861328125,-0.902557373046875,-0.602294921875,-0.24801551648113773,-0.5766400853952556,None
260,17.142,0.4483184814453125,-0.8450469970703125,-0.513916015625,-0.5196072395278584,-0.41284996478138986,None
261,17.191,0.2599334716796875,-0.9356689453125,-0.61846923828125,-0.5307153256966888,-0.40855608452451936,None
262,17.241,0.0847930908203125,-1.016082763671875,-0.4208984375,-0.523299088796426,-0.38733374530197184,None
263,17.291,-0.0862884521484375,-0.9986572265625,-0.4417724609375,-0.40455096352408604,0.07877268575739874,None
264,17.341,0.15435791015625,-0.855865478515625,-0.1095428466796875,-0.12695508789576476,-0.17609803478155314,None
265,17.391,-0.2975921630859375,-0.83660888671875,-0.8374481201171875,-0.18004870268813414,-0.13722100193211967,None
266,17.441,-0.12432861328125,-1.0567474365234375,-0.4487152099609375,-0.18538541119693186,-0.11184688601614573,None
267,17.49,-0.244476318359375,-1.0181427001953125,-0.6881256103515625,-0.1633051517305397,-0.11466047118161313,None
268,17.54,-0.16925048828125,-0.9654541015625,-0.035125732421875,-0.036358546266917945,0.1725625879619368,None
269,17.59,-0.092987060546875,-0.8399505615234375,-0.024688720703125,-0.029380375228739132,0.10998625832782026,None
270,17.64,0.264495849609375,-0.921630859375,0.017333984375,0.01880462135118194,-0.275806660280754,None
271,17.69,0.71258544921875,-1.4664459228515625,-0.03009033203125,0.015693634587485208,-0.28727686751063675,None
272,17.74,1.69769287109375,-1.8223724365234375,-0.7266693115234375,0.02860544213545035,-0.2393531142838732,None
273,18.089,-2.093017578125,-0.252777099609375,-0.1162872314453125,0.06038718496167947,-0.26510822561796676,Hook
274,18.138,-1.060394287109375,-0.8621063232421875,-1.04998779296875,0.060598717885869784,-0.3097144046512612,None
275,18.188,-0.83245849609375,-1.106109619140625,-0.744232177734375,0.15060760856978567,-0.38333170546809414,None
276,18.238,-0.160736083984375,-0.86041259765625,-0.713043212890625,0.1953843195608796,-0.47496772590650743,None
277,18.288,0.5930328369140625,-0.5080718994140625,-0.6461334228515625,-0.7860844487957904,-0.5850961828175704,None
278,18.338,0.648834228515625,-0.405029296875,-0.7742919921875,-0.7164930208936482,-0.7018571969819367,None
279,18.388,0.9322967529296875,-0.4430389404296875,-0.034942626953125,-0.6914360459388139,-0.7391023415675071,None
280,18.437,0.9732208251953125,-0.4392242431640625,-0.166412353515625,-0.6985199394611693,-0.7644453557308848,None
281,18.487,0.99285888671875,-0.8238983154296875,0.3295440673828125,-0.7312300757569472,-0.7530370929226503,None
282,18.537,0.919921875,-1.05279541015625,0.2205047607421875,-0.7754176970635852,-0.7302492788782348,None
283,18.587,0.636260986328125,-1.5223236083984375,0.080963134765625,-0.8331275482780762,-0.6785437839683947,None
284,18.637,0.6680908203125,-1.7055206298828125,-0.2030181884765625,-0.8849056280364883,-0.6052738148984976,None
285,18.687,1.238677978515625,-1.5435333251953125,-0.1457672119140625,-0.9043116081551921,-0.516789912886639,None
286,18.978,-5.6573486328125,-0.5049285888671875,2.94549560546875,-0.7732821212661466,-0.2521646433462145,None
287,19.055,-2.0042877197265625,-0.608123779296875,-0.849853515625,-0.7761216817695752,-0.268734742053075,None
288,19.135,-0.56695556640625,-0.6011810302734375,-2.0694732666015625,-0.8165526757196914,-0.32363459972309283,Hook
289,19.185,0.334625244140625,-0.7662506103515625,-0.7473907470703125,-0.7815833082721729,-0.42559067724148514,None
290,19.235,0.5305633544921875,-0.8228607177734375,-0.483673095703125,-0.5067378505373811,-0.48584902754999915,None
291,19.285,0.592010498046875,-0.777740478515625,-0.1837005615234375,-0.22987256166379402,-0.5952627976852868,None
292,19.335,0.6174774169921875,-0.8216094970703125,0.3643798828125,0.40541374767468724,-0.5662564036797288,None
293,19.384,0.6511383056640625,-0.68853759765625,0.211090087890625,0.2931119738215598,-0.67066241109434,None
294,19.434,0.6170196533203125,-0.6994171142578125,0.0225067138671875,0.03216259590686357,-0.661360925325548,None
295,19.484,0.5587615966796875,-0.8975067138671875,0.2533416748046875,0.2716575789822889,-0.5139648979290116,None
296,19.534,0.3827972412109375,-1.0395355224609375,-0.2512664794921875,0.13088584173418327,-0.4701074961146008,None
297,19.584,0.610626220703125,-1.717437744140625,-0.1254425048828125,-0.0002948541376492436,-0.409643223620196,None
298,19.664,1.087249755859375,-1.964385986328125,-1.0189971923828125,-0.003553823374105224,-0.39480413038851947,None
299,19.713,1.5751495361328125,-1.1946258544921875,-1.99798583984375,0.03650417104829769,-0.3701136690630319,None
300,20.011,-2.2118682861328125,0.0894317626953125,-0.658538818359375,0.06618607308156693,-0.5033059342541256,None
301,20.062,-0.0178375244140625,-0.2187652587890625,-1.744354248046875,0.06990888329135253,-0.6433172578163697,Hook
302,20.112,0.0689697265625,-0.5800323486328125,-1.26824951171875,0.11682471083484598,-0.745714173455849,None
303,20.162,0.1536865234375,-0.576995849609375,-1.318450927734375,0.18782202462707534,-0.8057847588108046,None
304,20.212,0.3602294921875,-0.769989013671875,-0.4768829345703125,-0.5265326610535261,-0.3695748811855409,None
305,20.262,0.5232086181640625,-0.8489532470703125,-0.4944915771484375,-0.42141790557128556,-0.40723568839799346,None
306,20.311,0.789459228515625,-0.8196868896484375,-0.3040618896484375,-0.26445490326450255,-0.40877773694308633,None
307,20.361,0.7547607421875,-0.8657684326171875,0.2403717041015625,-0.08255438363482563,-0.3621795320173868,None
308,20.411,0.6138458251953125,-0.8589935302734375,0.36614990234375,-0.03349578984370167,-0.30304629416088097,None
309,20.461,0.597412109375,-0.9674835205078125,0.64984130859375,-0.04989048337409942,-0.22925243895321623,None
310,20.511,0.42431640625,-1.46392822265625,0.4524688720703125,-0.10345159658140926,-0.1601807373598076,None
311,20.561,0.3591461181640625,-1.922760009765625,0.20489501953125,-0.08408978644101255,-0.1009404112698883,None
312,20.611,0.6489105224609375,-1.810882568359375,-0.0779571533203125,0.042705177124016516,-0.08899762089558552,None
313,20.66,0.75177001953125,-1.671478271484375,0.07049560546875,0.307354317738884,-0.12827256403523993,None
314,20.93,-1.3567352294921875,2.4407806396484375,1.47601318359375,0.3844205814274244,-0.32601626740630274,None
315,21.009,-2.1253814697265625,-0.26470947265625,0.7999420166015625,0.2562420607284595,-0.11810856707465626,Hook
316,21.059,-0.8130645751953125,-0.0340118408203125,0.733795166015625,0.15713212216172678,0.04455799838302081,None
317,21.109,-0.70587158203125,-0.309417724609375,0.5948638916015625,0.03625068385145589,0.24646486753640268,None
318,21.159,-0.4519500732421875,-0.57080078125,0.575042724609375,0.7097196460980181,0.4871389092732077,None
319,21.209,-0.35711669921875,-0.935943603515625,0.2394256591796875,0.24783152621682675,0.34672383546811314,None
320,21.258,-0.0097198486328125,-0.9839019775390625,0.3608551025390625,0.3443312274509729,0.009274369257879961,None
321,21.308,0.3123626708984375,-0.83416748046875,0.3964691162109375,0.42926843497087164,-0.3203772641088045,None
322,21.358,0.3968658447265625,-0.8244171142578125,0.24212646484375,0.2817922989322884,-0.41931490819226586,None
323,21.408,0.4048309326171875,-0.8588714599609375,0.3829345703125,0.40721614753790647,-0.39541603100142136,None
324,21.458,0.3493194580078125,-1.0919036865234375,0.40179443359375,0.1303468299481312,-0.3343764674945261,None
325,21.508,0.745574951171875,-1.1738128662109375,0.00146484375,-0.15002049920115126,-0.32307539410017505,None
326,21.558,0.7176055908203125,-1.424560546875,-0.2769622802734375,-0.26761684039701245,-0.2728077156550666,None
327,21.607,0.9754638671875,-1.8349151611328125,-0.048065185546875,-0.340376763981238,-0.1985697267953499,None
328,21.657,1.6304931640625,-1.4783477783203125,-1.19970703125,-0.411423037510025,-0.12815926309814876,None
329,21.956,-2.349853515625,-0.3928680419921875,-0.1819000244140625,-0.4366128609096832,-0.18218119913158562,None
330,22.046,-0.5098419189453125,-0.792144775390625,-2.04840087890625,-0.3114429249375675,-0.1960398409443591,Hook
331,22.096,-0.6195220947265625,-1.38330078125,-0.7861785888671875,-0.16666794475737276,-0.2210490123659345,None
332,22.146,-0.05511474609375,-0.89306640625,-0.2746429443359375,-0.2939423971969516,0.0588853597928629,None
333,22.195,0.3792724609375,-0.5538787841796875,-0.24322509765625,-0.40207155743912215,-0.5311982183028742,None
334,22.245,0.5043487548828125,-0.4968414306640625,-0.080352783203125,-0.1596527820878649,-0.7078443811412787,None
335,22.295,0.8220977783203125,-0.4647979736328125,-0.0195770263671875,-0.15510996931290957,-0.7389771791091637,None
336,22.345,0.79962158203125,-0.6627960205078125,-0.0204315185546875,-0.030811618098913175,-0.769753213621317,None
337,22.395,0.878509521484375,-1.0273284912109375,0.0753936767578125,-0.07327841629225368,-0.7504325528564844,None
338,22.445,0.6038360595703125,-1.4488677978515625,-0.10601806640625,-0.12248742361859374,-0.7196341310499756,None
339,22.495,0.8773040771484375,-1.46038818359375,-0.053314208984375,-0.1594781165356853,-0.6961760485652246,None
340,22.544,0.90435791015625,-1.4154052734375,0.165740966796875,-0.15832903663332498,-0.6686176362096156,None
341,22.594,1.281982421875,-1.2582550048828125,0.015716552734375,-0.18718741889409632,-0.6231835334761493,None
342,22.923,-2.23480224609375,-0.1405487060546875,-0.5269317626953125,-0.21996210437919114,-0.6861440595215635,None
343,22.973,-0.8623809814453125,-0.54254150390625,-1.9130401611328125,-0.28345569219038214,-0.756267411559508,Hook
344,23.043,-0.2698822021484375,-0.5937347412109375,-1.967803955078125,-0.19308528471338898,-0.8268273805740276,None
345,23.093,-0.0183258056640625,-0.851165771484375,-0.915069580078125,-0.11745361978693247,-0.8780954772953509,None
346,23.142,0.393218994140625,-0.7233123779296875,-0.302490234375,-0.38582149107347413,-0.4483177852888104,None
347,23.192,0.4329833984375,-0.53643798828125,-0.5671234130859375,-0.7264876693708924,-0.48504015707469966,None
348,23.242,0.7628173828125,-0.619110107421875,0.295562744140625,0.4308226305927332,-0.7435329865248737,None
349,23.292,0.84918212890625,-0.753143310546875,0.0939178466796875,0.3789946197160201,-0.7637333661940328,None
350,23.342,0.80035400390625,-0.96435546875,-0.16705322265625,0.33777500888516676,-0.7577139342080865,None
351,23.392,0.5633697509765625,-1.187774658203125,-0.1371612548828125,0.3373756458713782,-0.7299329448478983,None
352,23.442,0.5135650634765625,-1.3769683837890625,0.13250732421875,0.27415179607781237,-0.6748161706855624,None
353,23.491,0.544525146484375,-1.3211517333984375,-0.1046142578125,0.26388535504305705,-0.5909286698784504,None
354,23.541,0.3875732421875,-1.74029541015625,-0.159759521484375,0.24499119514153747,-0.428740218170579,None
355,23.88,-2.349151611328125,-0.049652099609375,-0.08966064453125,0.22923002237392393,-0.45563233324938807,None
356,23.93,-1.1739044189453125,-0.7299346923828125,-0.34857177734375,0.19940652058581998,-0.5112814552041552,Hook
357,23.98,-0.8016357421875,-0.68841552734375,-1.4225921630859375,0.16661602717896534,-0.6060993088571658,None
358,24.03,-0.740631103515625,-0.7728729248046875,-1.17425537109375,0.2876607032693412,-0.6722705649998734,None
359,24.079,-0.5505218505859375,-0.912506103515625,-0.312530517578125,0.2595035930261287,-0.7692367589006119,None
360,24.129,-0.0631256103515625,-0.41571044921875,-0.6036224365234375,-0.8235830263864852,0.085810951910498,None
361,24.179,0.357757568359375,-0.36578369140625,-0.7893218994140625,-0.8295176097731876,-0.04604408685887531,None
362,24.229,0.5878753662109375,-0.49029541015625,-0.2858123779296875,-0.503616902438564,-0.7194530541737176,None
363,24.279,0.844146728515625,-0.5545196533203125,-0.213623046875,-0.35948662239122753,-0.8177081171406495,None
364,24.329,0.9258880615234375,-0.975555419921875,-0.1663360595703125,-0.42200467303778894,-0.8024587797363121,None
365,24.379,0.77081298828125,-1.5833282470703125,-0.4897003173828125,-0.4315218795498556,-0.7227187892101622,None
366,24.468,0.70611572265625,-1.9871673583984375,-0.703125,-0.4159509483127957,-0.6494950804767158,None
367,24.518,1.3260345458984375,-1.5421600341796875,-1.1817474365234375,-0.3738732324119956,-0.5873934242090887,None
368,24.568,1.4467010498046875,-1.4766998291015625,-0.8007659912109375,-0.20565581952755263,-0.5530057687391358,None
369,24.837,-2.046051025390625,-0.129364013671875,-0.024139404296875,-0.20976655106547634,-0.626959822241646,None
370,24.887,-1.07745361328125,-0.643524169921875,-0.6375732421875,-0.297764975292372,-0.6883951057169206,Hook
371,24.937,-0.82470703125,-0.4577789306640625,-1.4962310791015625,-0.33591021319348613,-0.7616089948986333,None
372,24.987,-0.5101470947265625,-0.57781982421875,-0.9767608642578125,-0.36873492066813895,-0.8178903878933078,None
373,25.036,-0.1605072021484375,-0.6369476318359375,-0.7086944580078125,-0.7437518196668201,0.16610698505576363,None
374,25.086,-0.049896240234375,-0.6400909423828125,-0.5644989013671875,-0.6614323911531627,0.05836456085653583,None
375,25.136,-0.0390625,-0.7071533203125,-0.7601470947265625,-0.7321676473543561,0.03759808707006394,None
376,25.186,0.341217041015625,-0.6731109619140625,-0.5069732666015625,-0.6016240974048175,-0.375319887961377,None
377,25.236,0.275787353515625,-0.8325653076171875,-0.2106781005859375,-0.24531470716698425,-0.3057500221880503,None
378,25.286,0.4080352783203125,-0.7784423828125,-0.39886474609375,-0.4560120373323393,-0.4227588094361776,None
379,25.335,0.4033203125,-0.924530029296875,-0.2285003662109375,-0.23993349055294597,-0.3899708971697445,None
380,25.385,0.4724578857421875,-0.8744964599609375,-0.2776947021484375,-0.3026551497918926,-0.45779709797237333,None
381,25.435,0.6218719482421875,-1.1454315185546875,-0.0511932373046875,-0.29169556852574585,-0.4386776399999049,None
382,25.485,0.8847808837890625,-1.526611328125,0.2008209228515625,-0.2788308508394736,-0.36701628219666504,None
383,25.615,1.524200439453125,-2.0605010986328125,-0.935638427734375,-0.20450960299839002,-0.1916124585065055,None
384,25.664,1.7576751708984375,-1.1275787353515625,-2.368621826171875,-0.10967081721385784,-0.11708137476914884,None
385,25.904,-2.0012664794921875,-0.134368896484375,-0.0867462158203125,-0.10722178995763658,-0.2050763472006226,None
386,25.954,-0.6746063232421875,-0.2674407958984375,-1.427490234375,-0.18946100509626954,-0.31885570569939997,Hook
387,26.003,-0.2702178955078125,-0.464141845703125,-1.6438751220703125,-0.23891837460984175,-0.435640822098081,None
388,26.053,0.1720123291015625,-0.68609619140625,-0.955596923828125,-0.1675555159248154,-0.5140154820795837,None
389,26.103,0.5608062744140625,-0.80072021484375,-0.30560302734375,-0.3565727344606927,-0.5475387014014059,None
390,26.153,0.6827239990234375,-0.7768707275390625,-0.1442718505859375,-0.1825871269912373,-0.6537946829298299,None
391,26.203,0.7169189453125,-0.820953369140625,-0.028472900390625,-0.03466188457238765,-0.657544535899238,None
392,26.253,0.72418212890625,-0.646087646484375,-0.209442138671875,-0.30837173878008056,-0.729403280141549,None
393,26.302,0.418365478515625,-0.903167724609375,0.2058258056640625,0.22219633724046164,-0.4116076387114566,None
394,26.352,0.47021484375,-0.925628662109375,0.416259765625,0.1953841704199826,-0.39742350152644434,None
395,26.402,0.4500579833984375,-1.3607025146484375,0.437652587890625,0.11644022080856369,-0.3626747841499544,None
396,26.452,0.7233734130859375,-1.79864501953125,-0.0466156005859375,0.04038177636444054,-0.3059683645377032,None
397,26.532,1.3697052001953125,-1.9377288818359375,-0.462554931640625,0.018503542692458037,-0.25222154013877124,None
398,26.582,2.0460968017578125,-0.862579345703125,-1.5169219970703125,-0.028242545498204066,-0.17168870934204025,None
399,26.631,1.6174774169921875,-0.6877288818359375,-1.751708984375,0.1330654548949324,-0.08399020019755375,None
400,26.861,-2.26898193359375,0.0201263427734375,0.014404296875,0.17273388858438904,-0.14940402959630572,None
401,26.91,-0.8980255126953125,-0.511627197265625,-1.847991943359375,0.09731196383345207,-0.24242020496284883,Hook
402,26.97,-0.70587158203125,-0.792724609375,-1.98016357421875,0.18726289740253946,-0.32333424510048714,None
403,27.02,-0.17486572265625,-0.8912200927734375,-0.721710205078125,0.24934806271213733,-0.41274616431293815,None
404,27.07,0.2363128662109375,-0.8299407958984375,-0.4449920654296875,-0.47253568399697415,-0.24339353438120911,None
405,27.12,0.69683837890625,-0.535400390625,-0.4983978271484375,-0.681361113397873,-0.6897572260975507,None
406,27.17,0.4684906005859375,-0.628662109375,0.00543212890625,0.008640454143841023,-0.5975290603309505,None
407,27.22,0.702911376953125,-0.6053466796875,0.2355499267578125,0.3626298992390535,-0.7344289834672209,None
408,27.269,0.606292724609375,-0.9042816162109375,0.224578857421875,0.3505476755945365,-0.7269653827848195,None
409,27.319,0.7559356689453125,-1.1252899169921875,0.2523651123046875,0.3273684272689615,-0.7051663945781714,None
410,27.369,0.4834136962890625,-1.358673095703125,0.418731689453125,0.27496769114724584,-0.6546799965620684,None
411,27.419,0.657928466796875,-1.27520751953125,0.210601806640625,0.20226856746037455,-0.5989207854164932,None
412,27.469,0.48834228515625,-1.5418548583984375,0.4755859375,0.1513508237869477,-0.5305903090570463,None
413,27.519,1.221405029296875,-1.269134521484375,-0.710540771484375,0.064707601284657,-0.4543898473802494,None
414,27.568,1.7821197509765625,-1.29937744140625,-1.32672119140625,0.10767456727585992,-0.3363880503301346,None
415,27.718,-1.9635772705078125,1.3963775634765625,-0.7904510498046875,0.017706844173100113,-0.2597419524972241,None
416,27.867,-2.0079193115234375,-0.2686920166015625,-1.1542205810546875,0.024051749541066623,-0.29869307673483403,None
417,27.917,-0.9195098876953125,-0.701019287109375,-1.468048095703125,-0.0720492075901876,-0.4604117881516258,Hook
418,27.967,-0.124237060546875,-0.324615478515625,-1.4069671630859375,-0.09274417451399403,-0.6153856508298504,None
419,28.017,0.355010986328125,-0.2924041748046875,-0.7530364990234375,-0.06282372763358053,-0.7175193784092475,None
420,28.067,0.3005523681640625,-0.5497283935546875,-0.1079864501953125,-0.1927523284701572,-0.47274306443603253,None
421,28.117,0.4129638671875,-0.4855804443359375,-0.6891632080078125,-0.8174636459586262,-0.43990278427572094,None
422,28.166,0.5996551513671875,-0.7096710205078125,-0.5418243408203125,-0.6068384294861436,-0.5575370932049618,None
423,28.216,0.512939453125,-0.8872528076171875,-0.777801513671875,-0.6039743360766618,-0.6058062128921143,None
424,28.266,0.4935302734375,-1.01312255859375,-0.656494140625,-0.610156081865391,-0.6226753125576356,None
425,28.316,0.456024169921875,-0.91619873046875,-0.54974365234375,-0.5757990443533876,-0.6105523407435903,None
426,28.366,0.18853759765625,-0.9990234375,-0.1783599853515625,-0.17575525091160105,-0.18265866957521634,None
427,28.416,0.4016265869140625,-1.2259521484375,0.021575927734375,-0.1761783649009699,-0.13544761351108484,None
428,28.466,0.6802825927734375,-1.525787353515625,0.10797119140625,-0.18276959471734536,-0.03565015004153561,None
429,28.884,-1.9555816650390625,-0.5887603759765625,-0.45660400390625,-0.2219204327321381,-0.1095350917800651,Hook
430,28.934,-1.2063751220703125,-0.736083984375,-1.071807861328125,-0.24328635739149052,-0.2395940383211821,None
431,28.984,-0.27996826171875,-0.3024444580078125,-1.5618438720703125,-0.3147834936562047,-0.40686974170053475,None
432,29.034,0.1870574951171875,-0.5346832275390625,-1.0892181396484375,-0.3109857857084795,-0.5327876365474912,None
433,29.084,0.441253662109375,-0.640533447265625,-0.4388885498046875,-0.5652354026854478,-0.4940748433435928,None
434,29.133,0.423919677734375,-0.7049560546875,-0.1108245849609375,-0.1553004350365835,-0.5107269461365793,None
435,29.183,0.62451171875,-0.662933349609375,-0.274505615234375,-0.3825759276199931,-0.6565269734810197,None
436,29.233,0.4898529052734375,-0.9278717041015625,-0.15899658203125,-0.1688945325124797,-0.4615953857291635,None
437,29.283,0.4747314453125,-0.9617919921875,-0.40301513671875,-0.19801608816910207,-0.46555302371618945,None
438,29.333,0.5938720703125,-0.9461822509765625,-0.377838134765625,-0.19799155009034122,-0.46821283047101225,None
439,29.383,0.41278076171875,-1.141326904296875,-0.2230224609375,-0.17102702465644412,-0.45222499168891506,None
440,29.432,0.627166748046875,-1.3043060302734375,-0.23309326171875,-0.17907959703960424,-0.426489283101462,None
441,29.482,1.0034637451171875,-1.923126220703125,-0.0627288818359375,-0.1487228494995788,-0.3585875506809071,None
442,29.821,-2.386077880859375,-0.5415496826171875,0.8089752197265625,-0.14495989684094612,-0.3848816325670307,None
443,29.871,-1.131439208984375,-0.6183929443359375,-1.5413665771484375,-0.20827369580458588,-0.3955057037353973,Hook
444,29.921,-0.919158935546875,-0.83978271484375,-1.072509765625,-0.20198544473036406,-0.41636436400240623,None
445,29.971,-0.449981689453125,-0.7891998291015625,-0.514404296875,-0.5460508572199185,0.431017799731759,None
446,30.021,-0.2294921875,-0.816009521484375,-0.5982818603515625,-0.5912832469809253,0.221189774783155,None
447,30.07,0.1166229248046875,-0.738128662109375,-0.4210357666015625,-0.49547164162962737,-0.13596646178681332,None
448,30.12,0.301788330078125,-0.8195037841796875,-0.1412506103515625,-0.16985653074247087,-0.34113676697806894,None
449,30.17,0.4459686279296875,-0.7860870361328125,-0.103057861328125,-0.1299899912115144,-0.4902703045912391,None
450,30.22,0.4362640380859375,-0.7554168701171875,-0.4334716796875,-0.49770035567209076,-0.44786185657210675,None
451,30.27,0.5301971435546875,-0.8582611083984375,-0.261932373046875,-0.2918983987456566,-0.5086939296980274,None
452,30.32,0.4539337158203125,-1.037017822265625,-0.1130523681640625,-0.3276698457330079,-0.5281337601499069,None
453,30.369,0.4680023193359375,-1.2080841064453125,-0.085784912109375,-0.4018523770540784,-0.5315619937456348,None
454,30.419,0.6648712158203125,-1.5900726318359375,0.001068115234375,-0.4370901189889851,-0.4898338713385243,None
455,30.469,0.88079833984375,-1.862213134765625,-0.2063751220703125,-0.4698104616214123,-0.3970841961970146,None
456,30.519,2.043060302734375,-1.760589599609375,-0.8251953125,-0.47183861849137965,-0.3056305807765447,None
457,30.828,-2.327789306640625,0.8500213623046875,0.3665618896484375,-0.4478501191707964,-0.47780421238798465,None
458,30.878,-1.25921630859375,0.3025054931640625,-0.8409271240234375,-0.4481371800651149,-0.6365280712569419,None
459,30.928,-0.67657470703125,-0.2271728515625,-1.410003662109375,-0.5274557326118519,-0.7679528968981062,Hook
460,30.978,-0.3663482666015625,-0.705902099609375,-1.0219879150390625,-0.5589261849083115,-0.8498381913174308,None
461,31.027,-0.2396087646484375,-0.9646453857421875,-0.4977264404296875,-0.5235675916282138,-0.9010790789200892,None
462,31.077,0.1224365234375,-0.866455078125,-0.1306610107421875,-0.14911359331888896,-0.13838325029495369,None
463,31.127,0.5391387939453125,-0.8273468017578125,-0.5590972900390625,-0.1657700170169329,-0.23686583622352633,None
464,31.177,0.314239501953125,-0.9176025390625,-0.607086181640625,-0.15324807699667292,-0.2954497447295777,None
465,31.227,0.26519775390625,-0.8963623046875,-0.5249786376953125,-0.5053790498189662,-0.247362955210038,None
466,31.277,0.23858642578125,-0.82489013671875,-0.5870513916015625,-0.5798273661555855,-0.22936798103407488,None
467,31.326,0.1011962890625,-0.8534698486328125,-0.234588623046875,-0.2650350754570873,-0.11359022701954768,None
468,31.376,0.167205810546875,-0.76190185546875,-0.211883544921875,-0.2679304574257519,-0.20686140131656564,None
469,31.426,0.0726318359375,-0.9416351318359375,-0.001983642578125,-0.0021065889638485565,-0.07690512754272474,None
470,31.476,0.406280517578125,-1.1588287353515625,-0.0440521240234375,-0.07695778342094747,-0.09355533784565567,None
471,31.526,0.984588623046875,-1.8499908447265625,-0.5782623291015625,-0.12331808368315797,-0.07235832890067491,None
472,31.915,-2.1089935302734375,-0.3199005126953125,-0.819000244140625,-0.1550372191149313,-0.1754649808116444,None
473,31.964,-0.750091552734375,-0.2047271728515625,-1.433258056640625,-0.1986814886718924,-0.32962066594917255,Hook
474,32.014,-0.4528961181640625,-0.400665283203125,-1.2563323974609375,-0.18353027958782844,-0.44826391035511415,None
475,32.064,-0.3626251220703125,-0.665985107421875,-0.808319091796875,-0.16277518673218566,-0.5428718105595303,None
476,32.114,0.1251983642578125,-0.528594970703125,-0.6243896484375,-0.7632263721417658,-0.15127574931235052,None
477,32.164,0.2267913818359375,-0.5775146484375,-0.6129608154296875,-0.7278381862189753,-0.2600315157331916,None
478,32.214,0.542236328125,-0.4613189697265625,-0.68975830078125,-0.718264837569302,-0.3804935245777414,None
479,32.263,0.566070556640625,-0.610809326171875,-0.436767578125,-0.5816571605951494,-0.6019677879518315,None
480,32.313,0.937042236328125,-0.60919189453125,-0.2647857666015625,-0.588188393443105,-0.6699174625803418,None
481,32.363,0.7850341796875,-0.853759765625,-0.3658905029296875,-0.5979458383993106,-0.6977032840563313,None
482,32.413,0.7572479248046875,-1.0902099609375,-0.1497955322265625,-0.595355129056815,-0.7015293555431561,None
483,32.463,0.5398712158203125,-1.1336517333984375,-0.1588134765625,-0.6124837284933167,-0.6881944411291385,None
484,32.513,0.5200958251953125,-1.085540771484375,-0.257568359375,-0.6204905551249845,-0.6548112520930021,None
485,32.563,0.2121734619140625,-1.1055755615234375,-0.121185302734375,-0.6097773283830377,-0.612172792563214,None
486,32.612,0.0500640869140625,-1.17645263671875,0.05535888671875,-0.6330507082104375,-0.5565830334604137,None
487,32.662,0.37054443359375,-1.295196533203125,-0.0496368408203125,-0.6694087248308694,-0.4994486641029004,None
488,32.762,1.71209716796875,-2.02490234375,-0.79693603515625,-0.6240625263658863,-0.5007870346450166,None
489,33.019,-2.7296600341796875,-0.279693603515625,0.342620849609375,-0.5722942016987416,-0.5327824679807023,None
490,33.071,-1.243682861328125,-0.7394866943359375,-0.1969451904296875,-0.4927515856106061,-0.5939431076151277,None
491,33.121,-0.31500244140625,-0.75433349609375,-0.510833740234375,-0.5607229632930056,0.3267834827572521,Hook
492,33.171,-0.5250244140625,-0.838714599609375,-0.8968963623046875,-0.6119815327998016,0.28727055200921786,None
493,33.22,-0.3092041015625,-0.9554595947265625,-0.0246429443359375,-0.025783143692289553,0.30780408540817056,None
494,33.27,-0.4661865234375,-0.971649169921875,-0.1168670654296875,-0.11941634835069924,0.4300551659607112,None
495,33.32,-0.1358489990234375,-0.8817596435546875,-0.1495513916015625,-0.1672175765721259,0.1501739799083776,None
496,33.37,-0.1834259033203125,-0.8833770751953125,-0.4827728271484375,-0.4795645632026113,0.17925565526685072,None
497,33.42,-0.0494842529296875,-0.9166412353515625,-0.37908935546875,-0.38217062736711355,0.049824505737975304,None
498,33.47,-0.1159210205078125,-0.9191741943359375,-0.539581298828125,-0.506246631227196,0.10812197455182022,None
499,33.519,0.0343780517578125,-0.8183746337890625,-0.464111328125,-0.4933067712924757,-0.03651627115887286,None
500,33.569,-0.0305328369140625,-0.856536865234375,-0.4415435791015625,-0.45820039712283017,0.0316687671634666,None
501,33.619,-0.0605316162109375,-0.9281768798828125,-0.412139892578125,-0.4058233830548416,0.05949830691361646,None
502,33.669,-0.0419921875,-0.9246978759765625,-0.48248291015625,-0.4625900052626851,0.04022824741561102,None
503,33.719,0.0606842041015625,-0.915283203125,-0.4488372802734375,-0.4402909102106054,-0.059423512677765154,None
504,33.769,0.0593414306640625,-0.9157257080078125,-0.5126190185546875,-0.4884674389858734,-0.05645542960015737,None
505,33.819,0.0582733154296875,-0.8095550537109375,-0.4903717041015625,-0.5180948289206592,-0.0614514340987776,None
506,33.868,0.1561279296875,-0.8603668212890625,-0.3501434326171875,-0.376949343678102,-0.16575552676775435,None
507,33.918,0.16375732421875,-0.920501708984375,-0.353240966796875,-0.3582737731825833,-0.16384590375254512,None
508,33.968,0.161895751953125,-0.904205322265625,-0.3053436279296875,-0.31994262692051784,-0.16724694312515556,None
509,34.018,0.068023681640625,-0.9505157470703125,-0.427764892578125,-0.41039085091134836,-0.06512231100306376,None
510,34.068,0.0469818115234375,-0.91339111328125,-0.4587249755859375,-0.44880130323883866,-0.045916964720736975,None
511,34.118,0.0228118896484375,-0.8660430908203125,-0.41546630859375,-0.43253274550385756,-0.0237422570898699,None
512,34.167,-0.0598602294921875,-0.9105682373046875,-0.4285888671875,-0.4258671319430118,0.059375151289758475,None
513,34.217,0.026153564453125,-0.905792236328125,-0.410064697265625,-0.4124196075763324,-0.026294663649738398,None
514,34.267,-0.0398101806640625,-0.92315673828125,-0.502716064453125,-0.4782478880744761,0.037845409461757996,None
515,34.317,0.0682830810546875,-0.883758544921875,-0.4571990966796875,-0.45948841587791983,-0.06846397045951086,None
516,34.367,-0.1007080078125,-0.945556640625,-0.454132080078125,-0.43293629792034666,0.09556820805042696,None
517,34.417,-0.059356689453125,-0.840362548828125,-0.4360198974609375,-0.46054719717611126,0.06257280563893713,None
518,34.466,-0.137603759765625,-0.8337249755859375,-0.275848388671875,-0.3141158492843939,0.1548041311513169,None
519,34.516,-0.1634521484375,-0.781982421875,-0.249786376953125,-0.30428064342530486,0.1952781264353223,None
520,34.566,-0.2344207763671875,-0.80340576171875,-0.1771240234375,-0.21529625204767713,0.27403359169591013,None
521,34.616,-0.7080535888671875,-1.0450286865234375,-0.0343017578125,-0.20968726382497602,0.27452676892500283,None
522,34.666,0.03240966796875,-0.8361663818359375,-0.326507568359375,-0.3637346131221868,-0.036081374979904525,None
523,34.716,0.52752685546875,-1.1358489990234375,-0.413787841796875,-0.07582212554670224,-0.08762805699931754,None
524,34.766,1.12347412109375,-1.8549652099609375,-0.1285400390625,0.30750123199300394,-0.06542933778857409,None
525,34.835,0.6493377685546875,-1.9920501708984375,-0.23162841796875,0.5355029214353394,-0.02110324711815668,None
526,34.885,0.4148712158203125,-1.5354461669921875,0.2748260498046875,0.7964514885349341,-0.14283778673521189,None
527,34.935,-0.049224853515625,-2.0223236083984375,0.1981658935546875,0.9467376932575914,-0.33671206738225,None
528,34.987,-2.116912841796875,-1.46368408203125,-0.1702880859375,0.9988368866996163,-0.5871304919782907,None
529,35.104,-1.5776519775390625,2.125640869140625,0.797607421875,0.9731045821699814,-0.6295967904785568,Hook
530,35.154,-1.386260986328125,0.447509765625,0.7607574462890625,0.9198577224521741,-0.5804740081146682,None
531,35.204,-1.257232666015625,-0.394317626953125,1.11920166015625,0.7877889816398695,-0.5335898923926754,None
532,35.254,-0.8116302490234375,-0.3149261474609375,0.846527099609375,0.5530448763292074,-0.4844841159291752,None
533,35.304,-0.8577423095703125,-0.540863037109375,0.399688720703125,0.2778490186945333,-0.47217295880015014,None
534,35.354,-0.2436676025390625,-0.388702392578125,0.1431884765625,0.34566780393181773,0.5070180221271833,None
535,35.403,-0.335296630859375,-0.4629974365234375,-0.723236083984375,-0.8422045948794322,0.3637100215668415,None
536,35.453,0.177398681640625,-0.439910888671875,-0.81536865234375,-0.9402298130398195,0.2831806187095931,None
537,35.503,0.524139404296875,-0.4839935302734375,-0.8132781982421875,-0.977403201224991,0.16852038363207514,None
538,35.553,0.6575164794921875,-0.7586517333984375,-0.7551116943359375,-0.9871730249029483,0.1066464776097296,None
539,35.603,0.69781494140625,-0.998504638671875,-0.6450042724609375,-0.9877115618463901,0.05167930077854331,None
540,35.653,0.7263946533203125,-1.1735382080078125,-0.8189239501953125,-0.9872788777838456,0.0374254643554602,None
541,35.703,0.913818359375,-1.3762054443359375,-0.34600830078125,-0.9667470441461941,0.061727842044631984,None
542,35.752,0.8410797119140625,-1.5210418701171875,-0.23223876953125,-0.9542646675122454,0.14335732398024267,None
543,35.802,1.4601287841796875,-1.38336181640625,-0.824249267578125,-0.9493880592000463,0.22805771937184255,None
544,35.852,1.9479827880859375,-0.8995208740234375,-1.442718505859375,-0.9363722122692166,0.28476178641121674,None
545,36.121,-2.058258056640625,-0.5399322509765625,0.0304412841796875,-0.897414643053423,0.234175731234612,None
546,36.171,-0.855621337890625,-0.6524658203125,-0.9750213623046875,-0.8808192959276168,0.13274556762488166,Hook
547,36.221,-0.6310272216796875,-0.8553466796875,-1.2677459716796875,-0.8557092673509594,0.05751011296022349,None
548,36.271,-0.123443603515625,-0.8025054931640625,-0.4377288818359375,-0.4788509611585065,0.13382570702726765,None
549,36.321,0.3162689208984375,-0.6183013916015625,-0.4549407958984375,-0.5926503573644573,-0.380938037847969,None
550,36.37,0.787078857421875,-0.4976043701171875,-0.4379119873046875,-0.5919623678162197,-0.478405489055954,None
551,36.42,0.8583831787109375,-0.417144775390625,-0.455047607421875,-0.602728867827596,-0.5752168525207448,None
552,36.47,0.687286376953125,-0.7326812744140625,-0.054107666015625,-0.07364829218974711,-0.6831615845102154,None
553,36.52,0.77752685546875,-0.82940673828125,0.1225433349609375,-0.054375225757584494,-0.703645173559733,None
554,36.57,0.761077880859375,-1.1084136962890625,0.1839599609375,-0.0547351478011933,-0.6961683926000076,None
555,36.62,0.84429931640625,-1.3253631591796875,0.0108795166015625,-0.10239939654393208,-0.6785953580869358,None
556,36.669,0.92437744140625,-1.358306884765625,-0.47314453125,-0.1591190855730444,-0.6600240350275342,None
557,36.719,1.0637359619140625,-1.186248779296875,-0.7262725830078125,-0.213045789599809,-0.626231249378756,None
558,36.769,1.1897735595703125,-0.913818359375,-0.4281768798828125,-0.1528864721279217,-0.5709055037225823,None
559,36.819,1.127960205078125,-1.0283203125,-0.277008056640625,-0.07202347231887024,-0.47542483543030084,None
560,36.869,1.247802734375,-0.7068634033203125,-1.499847412109375,-0.07701533271751235,-0.39983784744299716,None
561,37.021,-4.44744873046875,0.6559295654296875,-3.2085723876953125,-0.195091699138157,-0.08175738733565519,None
562,37.128,-2.1132965087890625,-0.1196441650390625,-0.508453369140625,-0.16669570071203568,-0.13285679777640028,None
563,37.178,-0.7239532470703125,-0.46636962890625,-1.4341583251953125,-0.29943838066110606,-0.24894535276083135,Hook
564,37.228,-0.6404266357421875,-0.831085205078125,-1.3375091552734375,-0.3610127883138545,-0.35455899361745885,None
565,37.278,-0.26763916015625,-0.78857421875,-0.5547332763671875,-0.5753620702031844,0.26747751530627656,None
566,37.327,0.0909881591796875,-0.5281982421875,-0.87255859375,-0.8554693842311712,-0.08885330549596791,None
567,37.377,0.40704345703125,-0.3436279296875,-0.7361602783203125,-0.8719988817889689,-0.26540342299426734,None
568,37.427,0.4424285888671875,-0.3268585205078125,-0.947784423828125,-0.8981385136515384,-0.4095175527880239,None
569,37.477,0.6672515869140625,-0.489501953125,-0.6292266845703125,-0.9028474765328558,-0.5331711995650047,None
570,37.527,0.737579345703125,-0.7433319091796875,-0.5740203857421875,-0.9040494120002815,-0.5988222739932638,None
571,37.577,1.0142364501953125,-1.04150390625,-0.5703277587890625,-0.9018576925966343,-0.6364299015324966,None
572,37.626,1.010009765625,-1.2831268310546875,-0.22698974609375,-0.8771811040067525,-0.6273296326937168,None
573,37.676,0.9701995849609375,-1.4713287353515625,0.1036376953125,-0.8475041634804513,-0.5754517234188724,None
574,37.726,1.1842803955078125,-1.301666259765625,-0.3365478515625,-0.8572635361490187,-0.5070218021092552,None
575,37.776,1.829437255859375,-1.5455169677734375,-0.455230712890625,-0.8475898575600272,-0.4179995222261596,None
576,38.105,-2.087066650390625,-0.12005615234375,-0.7486572265625,-0.8733001190722747,-0.5202780564648284,None
577,38.155,-0.8699188232421875,-0.2058258056640625,-1.336883544921875,-0.8925678626544395,-0.6515549661504544,Hook
578,38.205,-0.3598785400390625,-0.4429168701171875,-0.9802398681640625,-0.8874243937899327,-0.7439492175233268,None
579,38.254,-0.2815399169921875,-0.6138916015625,-1.00933837890625,-0.8928171435077479,-0.8149242309544225,None
580,38.304,0.077850341796875,-0.6992645263671875,-0.649444580078125,-0.6805228493784663,-0.08130568186753935,None
581,38.354,0.0925445556640625,-0.5029754638671875,-0.9261474609375,-0.7178980883752956,-0.2619328149164143,None
582,38.404,0.5437164306640625,-0.3351898193359375,-0.7623443603515625,-0.7306624908294214,-0.4329186304173265,None
583,38.454,0.664886474609375,-0.52374267578125,-0.505340576171875,-0.6943512686593432,-0.6744819513185931,None
584,38.504,1.108978271484375,-0.6200408935546875,-0.4510650634765625,-0.6960960983228259,-0.7355149897906436,None
585,38.553,1.029541015625,-0.9175872802734375,-0.7102203369140625,-0.6978814892387898,-0.7430987324647914,None
586,38.603,1.0500640869140625,-1.1888275146484375,-0.3643798828125,-0.6814883444774548,-0.7170401343230398,None
587,38.653,1.020111083984375,-1.3810272216796875,-0.4452667236328125,-0.6835010698717445,-0.6706432179220488,None
588,38.703,1.4610443115234375,-1.449462890625,-0.2829132080078125,-0.6731693239319552,-0.6046176738348127,None
589,38.99,-3.9506683349609375,-0.094207763671875,0.5201263427734375,-0.6409197514680202,-0.6015838447775574,None
590,39.042,-1.548828125,-0.135833740234375,-0.65057373046875,-0.6835774842468963,-0.6532246729403136,None
591,39.092,-1.194427490234375,-0.86688232421875,-0.983367919921875,-0.7061167482138877,-0.7030789197442596,Hook
592,39.142,-0.9933319091796875,-0.7003936767578125,-1.0199737548828125,-0.688397569927924,-0.7633451534319633,None
593,39.191,-0.746307373046875,-0.8480987548828125,-0.2223968505859375,-0.6601035938326697,-0.812487655771901,None
594,39.241,-0.400115966796875,-0.7206573486328125,-0.38201904296875,-0.468361256642945,0.44041220495705585,None
595,39.291,0.094940185546875,-0.56085205078125,-0.775421142578125,-0.8102695174537543,-0.09872229017437929,None
596,39.341,0.1668701171875,-0.538970947265625,-0.797607421875,-0.8285663122933936,-0.17079992116347234,None
597,39.391,0.4143524169921875,-0.494171142578125,-0.64239501953125,-0.7926113910272222,-0.4552047031354708,None
598,39.441,0.468170166015625,-0.578369140625,-0.63653564453125,-0.740113452014296,-0.4781051955100356,None
599,39.491,0.724884033203125,-0.7727203369140625,-0.5057830810546875,-0.7334744660609825,-0.5300387270512404,None
600,39.54,0.8442840576171875,-1.0645904541015625,-0.5519561767578125,-0.7405300143126249,-0.539145303958895,None
601,39.59,0.951446533203125,-1.2024688720703125,-0.7215576171875,-0.7421523475729275,-0.5173877169640452,None
602,39.64,0.970611572265625,-1.4005584716796875,-0.629058837890625,-0.7121147368854106,-0.4638487440365152,None
603,39.69,1.20391845703125,-1.46783447265625,-0.589874267578125,-0.6802651933537159,-0.39705993903680104,None
604,39.74,1.52215576171875,-1.33349609375,-0.4367218017578125,-0.6372649513842963,-0.32067130048867565,None
605,39.79,1.483123779296875,-1.203216552734375,-2.016204833984375,-0.6133548522761139,-0.26966488837234376,None
606,39.879,-0.147369384765625,1.4101409912109375,-2.534149169921875,-0.6232681287358824,-0.10753467255115831,None
607,40.039,-2.0146942138671875,-0.6855621337890625,0.260498046875,-0.6269195836177855,-0.1684003533476088,Hook
608,40.089,-0.719085693359375,-0.55963134765625,-0.544281005859375,-0.6972067764840855,0.6775049738196636,None
609,40.138,-0.6756744384765625,-0.7761383056640625,-1.1855316162109375,-0.70402343930958,0.6157795256304356,None
610,40.188,-0.3950958251953125,-0.779541015625,-0.656463623046875,-0.6441403563806782,0.3614661772909107,None
611,40.238,0.1002349853515625,-0.64764404296875,-0.66064453125,-0.714098058929441,-0.10771474705962503,None
612,40.288,0.4245758056640625,-0.74664306640625,-0.5941925048828125,-0.6226980580691488,-0.40651974019257237,None
613,40.338,0.3123779296875,-0.8358001708984375,-0.5019378662109375,-0.5148409572540071,-0.3051282347493214,None
614,40.388,0.74029541015625,-0.7006683349609375,-0.437835693359375,-0.5288254466205057,-0.3817039722855077,None
615,40.437,0.652069091796875,-0.85980224609375,-0.1805419921875,-0.20549926898048507,-0.5959880829265689,None
616,40.487,0.7414703369140625,-0.967041015625,-0.2182769775390625,-0.21974184241900485,-0.6058659025321517,None
617,40.537,0.7791595458984375,-1.1230316162109375,-0.1835174560546875,-0.22936234091718413,-0.5910060189084652,None
618,40.587,0.73883056640625,-1.517120361328125,-0.258209228515625,-0.25546920131752837,-0.5705720362976586,None
619,40.637,0.9202117919921875,-1.4657135009765625,-0.488983154296875,-0.30487164015349694,-0.547899137341849,None
620,40.687,1.135498046875,-1.2061920166015625,-0.50250244140625,-0.29564027375964136,-0.48971773260036955,None
621,40.737,1.082763671875,-1.3102569580078125,-0.6757965087890625,-0.2091985947093097,-0.36511985580498363,None
622,40.786,1.3928985595703125,-1.3800811767578125,-1.6204376220703125,-0.17912421897589004,-0.2929300780160324,None
623,41.023,-3.48040771484375,-0.6045684814453125,1.01593017578125,-0.24930004111886828,-0.33344684207963093,None
624,41.075,-1.4579620361328125,-0.3964691162109375,-1.052581787109375,-0.36480167401186403,-0.3874059167094493,None
625,41.125,-0.5611724853515625,-0.44970703125,-1.2437591552734375,-0.395854634910012,-0.4997825851822786,Hook
626,41.175,-0.3893280029296875,-0.451812744140625,-1.24700927734375,-0.42363809126831786,-0.5934710052306098,None
627,41.225,-0.08709716796875,-0.660736083984375,-0.7841949462890625,-0.764737527929657,0.08463139306809035,None
628,41.275,0.106597900390625,-0.563079833984375,-0.708160400390625,-0.7827246616615833,-0.11701251767743893,None
629,41.325,0.4900054931640625,-0.5315704345703125,-0.55181884765625,-0.7201967448533937,-0.5387680601592422,None
630,41.375,0.584381103515625,-0.6826629638671875,-0.5026397705078125,-0.5929122731910185,-0.5675537915279323,None
631,41.424,0.9138031005859375,-0.6921844482421875,-0.6691741943359375,-0.5826312277137159,-0.5972855048513454,None
632,41.474,0.9452972412109375,-1.0977783203125,-0.5814971923828125,-0.5110084944563936,-0.5582881578649717,None
633,41.524,0.8328857421875,-1.472747802734375,-0.0298614501953125,-0.45498463499684494,-0.506798598773948,None
634,41.574,0.7681884765625,-1.4632110595703125,-0.2769775390625,-0.44853900960018517,-0.38225170456046803,None
635,41.624,1.0682220458984375,-1.59490966796875,-0.262969970703125,-0.40765447209380634,-0.26839601761779514,None
636,41.674,0.5917816162109375,-1.6266632080078125,-0.9195709228515625,-0.218605904051585,-0.08293254423112308,None
637,41.743,0.82818603515625,-1.9959259033203125,-0.597412109375,-0.11347145234136394,-0.032571901613198714,None
638,41.793,1.6518707275390625,-0.401519775390625,-1.738037109375,-0.037133425446306066,-0.13725042326220305,None
639,41.843,0.079559326171875,0.3268585205078125,-2.03277587890625,0.052023842805479656,-0.20169746654952395,None
640,42.012,-2.035064697265625,-0.6513824462890625,1.0361785888671875,0.1972359652413035,-0.21435543334759294,None
641,42.062,-1.1225128173828125,-0.6307220458984375,-0.6989593505859375,0.0854290565073401,-0.27967194919566507,Hook
642,42.112,-1.3270111083984375,-0.63397216796875,-1.2212677001953125,-0.02871172158368022,-0.3279769516765803,None
643,42.162,-0.3224945068359375,-0.5408782958984375,-0.2907867431640625,-0.47352480280500603,0.46494394411561896,None
644,42.212,-0.062896728515625,-0.179840087890625,-0.97369384765625,-0.5967500892783447,0.3041246678245688,None
645,42.262,0.6220703125,-0.1215667724609375,-0.9373321533203125,-0.6267182119604706,0.07671853855211831,None
646,42.312,0.3909912109375,-0.4674530029296875,-0.6397857666015625,-0.8074408690549788,-0.44250837451763175,None
647,42.361,0.77313232421875,-0.4962615966796875,-0.3010711669921875,-0.5186879321912251,-0.7997028184343069,None
648,42.411,0.8414459228515625,-0.66278076171875,-0.8056793212890625,-0.5331813815351243,-0.843495511312776,None
649,42.461,1.090087890625,-0.8412322998046875,-0.770233154296875,-0.5212193010215457,-0.8656693432770168,None
650,42.511,1.30987548828125,-1.2516937255859375,-0.8086090087890625,-0.4983109993642341,-0.855515844593762,None
651,42.561,1.38702392578125,-1.5380706787109375,-0.6531219482421875,-0.44329171232650755,-0.8271988606611876,None
652,42.611,1.2007904052734375,-1.2532196044921875,-0.1908721923828125,-0.39503037124537965,-0.7939423444694202,None
653,42.66,1.3775634765625,-0.85968017578125,0.101593017578125,-0.34726099084479894,-0.7592281102515717,None
654,42.71,1.6134796142578125,-0.2213287353515625,-1.1431732177734375,-0.3909059505990623,-0.7151854415064156,None
655,42.959,-2.2773590087890625,-0.383758544921875,0.5594635009765625,-0.3027576883720672,-0.7118777667769536,None
656,43.009,-1.189453125,-0.5203857421875,-0.7689361572265625,-0.28617420279276307,-0.7539784835337262,Hook
657,43.059,-0.7581024169921875,-0.79071044921875,-1.0332489013671875,-0.2675907400645752,-0.7868560424683312,None
658,43.109,-0.6928863525390625,-0.8892822265625,-0.6767120361328125,-0.1694609663028096,-0.8075696732827147,None
659,43.159,-0.1748504638671875,-0.8172607421875,0.1131134033203125,0.13709861890678873,0.20732216863318823,None
660,43.209,-0.22900390625,-0.5980072021484375,-0.37396240234375,-0.5302108899562603,0.30881595837803616,None
661,43.259,0.7278900146484375,-0.35601806640625,-1.228363037109375,-0.6472643772860661,0.19163324164078377,None
662,43.308,0.60186767578125,-0.8065032958984375,-0.5904541015625,-0.640005602621408,0.1074485541960013,None
663,43.358,0.5167236328125,-0.950225830078125,-0.5802001953125,-0.6245565414938234,0.09135088337521675,None
664,43.408,0.668121337890625,-1.1204071044921875,-0.2324676513671875,-0.6587539624141778,0.07999473687358213,None
665,43.458,0.6269989013671875,-1.332794189453125,0.0448455810546875,-0.662069624243354,0.07975662788445363,None
666,43.508,0.9666595458984375,-1.459564208984375,-0.0605926513671875,-0.6854222446214547,0.0898457947508284,None
667,43.558,1.300537109375,-1.4197845458984375,-0.213958740234375,-0.673687063989524,0.09401851677092371,None
668,43.607,1.9687652587890625,-1.0397796630859375,-0.542144775390625,-0.6440799864441255,0.10657770895421863,None
669,43.657,1.321807861328125,-1.18865966796875,-1.2832489013671875,-0.5852692477571718,0.16535445998763768,None
670,43.707,1.336700439453125,-0.767120361328125,-1.76092529296875,-0.5283017706916656,0.2328899191927641,None
671,43.956,-2.348297119140625,-0.3265838623046875,-0.51007080078125,-0.5494666643053531,0.1675427784842541,None
672,44.006,-1.071685791015625,-0.924285888671875,-1.425811767578125,-0.6059659057647154,0.05263001881092919,Hook
673,44.056,-0.655242919921875,-1.0205230712890625,-0.8435821533203125,-0.6224269635835714,-0.05622733196094383,None
674,44.106,-0.349700927734375,-0.702850341796875,-0.5251312255859375,-0.5985353103992457,0.37025562345451746,None
675,44.156,0.1806182861328125,-0.30047607421875,-0.6078643798828125,-0.6156357359678089,0.20734820199926604,None
676,44.206,0.8766021728515625,-0.1619415283203125,-1.070556640625,-0.6270694113738865,0.021647664581126155,None
677,44.255,0.6467742919921875,-0.5922393798828125,-0.4298248291015625,-0.5873717190101307,-0.6622484289178603,None
678,44.305,0.6523590087890625,-0.7271270751953125,-0.3347930908203125,-0.4182299870432777,-0.6317310178395519,None
679,44.355,0.882568359375,-0.7808074951171875,-0.423492431640625,-0.4050538065965384,-0.6603415474632276,None
680,44.405,0.6816253662109375,-1.234954833984375,-0.21661376953125,-0.40816137206499886,-0.6580347510929963,None
681,44.455,0.8887176513671875,-1.4532012939453125,-0.1756439208984375,-0.37524612096949633,-0.6499977613592192,None
682,44.505,0.77679443359375,-1.5597076416015625,-0.1455078125,-0.3686089454761977,-0.6198290572959437,None
683,44.554,1.048248291015625,-1.317047119140625,0.0363311767578125,-0.32528503005644266,-0.5948386519991277,None
684,44.604,1.535064697265625,-1.0966644287109375,-0.21185302734375,-0.30872916009930096,-0.5580668682534405,None
685,44.903,-2.0813446044921875,0.040679931640625,-0.1298980712890625,-0.27758428809327135,-0.6060363440013049,None
686,44.953,-1.161163330078125,-0.485260009765625,-1.426025390625,-0.3345106023992489,-0.6779054302591466,Hook
687,45.003,-0.7907867431640625,-0.817596435546875,-0.7274932861328125,-0.3302924106085808,-0.7471591374797052,None
688,45.053,-0.413787841796875,-0.58319091796875,-0.57904052734375,-0.7045771725497725,0.44971096302022984,None
689,45.103,-0.1722564697265625,-0.573333740234375,-0.4297027587890625,-0.5997341850392277,0.23375682438333625,None
690,45.153,0.0740814208984375,-0.7596588134765625,-0.5095062255859375,-0.5570193631857095,-0.0807254378667222,None
691,45.202,0.309295654296875,-0.699798583984375,-0.877716064453125,-0.5855955512009775,-0.18853911022514616,None
692,45.252,0.4870758056640625,-0.68841552734375,-0.6801910400390625,-0.7028448117685602,-0.4495686912575618,None
693,45.302,0.8074188232421875,-0.589263916015625,-0.4242706298828125,-0.5843052794380894,-0.7435531296740779,None
694,45.352,0.5728302001953125,-0.890960693359375,-0.1843414306640625,-0.20261059517826316,-0.5327956526753146,None
695,45.402,0.5057830810546875,-1.3604278564453125,-0.179351806640625,-0.20772314921953589,-0.5394714495943358,None
696,45.452,1.0746612548828125,-1.5744781494140625,-0.7901763916015625,-0.3061415965331942,-0.5548800531538702,None
697,45.501,1.40325927734375,-1.6063079833984375,-0.458465576171875,-0.3061532208243542,-0.5482257884015705,None
698,45.551,1.692352294921875,-1.20062255859375,-0.835662841796875,-0.2647590057442803,-0.4899910739983987,None
699,45.601,1.8862762451171875,-0.9853057861328125,-1.066680908203125,-0.20153363616715697,-0.3764234940943509,None
700,45.9,-1.998626708984375,-0.686981201171875,-0.3806304931640625,-0.19035255434400278,-0.3819280248750067,None
701,45.95,-0.8495330810546875,-0.7874755859375,-1.2898712158203125,-0.2176115637587246,-0.43750139759096707,Hook
702,46,-0.500396728515625,-0.822113037109375,-0.64300537109375,-0.1804305532105175,-0.45779760844727685,None
703,46.05,-0.0268402099609375,-0.5694732666015625,-0.4482574462890625,-0.6185159077289891,0.037009365633427625,None
704,46.1,0.0227813720703125,-0.79827880859375,-0.3238372802734375,-0.3759151949054794,-0.026435717888092104,None
705,46.149,0.396148681640625,-0.507598876953125,-0.38458251953125,-0.6038955149607488,-0.5282010065975306,None
706,46.199,0.4650421142578125,-0.4142608642578125,-0.2839508056640625,-0.5653742438397406,-0.6794155736874985,None
707,46.249,0.62646484375,-0.4399566650390625,-0.152557373046875,-0.32761810168118793,-0.8025707314658576,None
708,46.299,0.5689544677734375,-0.790069580078125,-0.154083251953125,-0.1914186089288705,-0.5771918315488721,None
709,46.349,0.2575225830078125,-1.2572479248046875,-0.0704803466796875,-0.23835573379768457,-0.5373080230742645,None
710,46.399,0.6071624755859375,-1.6427001953125,-0.0128173828125,-0.3280294111469182,-0.5081304858074734,None
711,46.488,1.123809814453125,-1.998077392578125,-0.47186279296875,-0.275958258178202,-0.468066781867684,None
712,46.538,1.7476043701171875,-1.3447113037109375,-0.990203857421875,-0.29817506219386186,-0.45526190143552375,None
713,46.588,1.2606353759765625,-0.8385467529296875,-1.3199920654296875,-0.2456626577202827,-0.3990943231108085,None
714,46.638,0.5867462158203125,-1.0214996337890625,-1.4795074462890625,-0.05829528403474223,-0.3339949248575704,None
715,46.688,1.10076904296875,-0.18975830078125,-1.9753875732421875,-0.04149907517765327,-0.36406163448277423,None
716,46.877,-2.262054443359375,-0.558258056640625,-0.713470458984375,-0.0564917600160992,-0.40238415432387475,None
717,46.927,-1.231903076171875,-0.7996826171875,-1.135528564453125,-0.07815699657948148,-0.4837499168914565,Hook
718,46.977,-0.94891357421875,-0.832550048828125,-0.335296630859375,-0.08568959769978958,-0.5879132943767955,None
719,47.027,-0.5094451904296875,-0.3473968505859375,-0.2275848388671875,-0.5479925724878166,0.7750837648455108,None
720,47.076,-0.0110321044921875,-0.0310516357421875,-1.061248779296875,-0.6002628195500651,0.6765899858251465,None
721,47.126,0.4160919189453125,-0.3215789794921875,-0.8145904541015625,-0.5721791596989598,0.5878777236601193,None
722,47.176,0.31396484375,-0.6472625732421875,-0.8621368408203125,-0.5754095568729692,0.5358042236934398,None
723,47.226,0.76898193359375,-0.627716064453125,-0.826904296875,-0.5857667544834382,0.4863938596160573,None
724,47.276,0.6270294189453125,-1.022613525390625,-0.3394622802734375,-0.5388877587376755,0.4694039254312617,None
725,47.326,0.759765625,-1.050628662109375,-0.28076171875,-0.5349735544949074,0.4651103263375717,None
726,47.375,0.5794830322265625,-1.2482147216796875,-0.2502593994140625,-0.5302293515903829,0.47772102434613545,None
727,47.425,0.71209716796875,-1.34332275390625,-0.1497955322265625,-0.5076558658352559,0.4809752763551337,None
728,47.475,0.6993408203125,-1.521942138671875,-0.2374725341796875,-0.49818298370795133,0.5097200423495223,None
729,47.525,1.2185821533203125,-1.6088714599609375,-0.5064239501953125,-0.4697013142883535,0.5475027098878713,None
730,47.605,1.9888153076171875,-1.0191192626953125,-1.46551513671875,-0.4291255696147689,0.6037046205367427,None
731,47.884,-2.283843994140625,-0.7768096923828125,-0.3148651123046875,-0.42522783319851737,0.5460266310113794,None
732,47.944,-0.711181640625,-0.5081024169921875,-2.0546417236328125,-0.4904658476332276,0.43932779403381794,Hook
733,47.993,-0.3441009521484375,-0.725799560546875,-0.519073486328125,-0.5817169005903402,0.35980209441544647,None
734,48.043,-0.254913330078125,-0.6873931884765625,-0.2611846923828125,-0.3551883860977649,0.32753749171332625,None
735,48.093,0.2664642333984375,-0.4976348876953125,-0.462249755859375,-0.6805777591624279,-0.36521881338366013,None
736,48.143,0.5157928466796875,-0.4239044189453125,-0.8349151611328125,-0.708377067202114,-0.5046714796971399,None
737,48.193,0.6503448486328125,-0.5865020751953125,-0.589111328125,-0.7086744465461552,-0.6161748694239908,None
738,48.243,0.6947784423828125,-0.7318572998046875,-0.4388427734375,-0.6990766562906007,-0.6276596537786382,None
739,48.293,0.6358184814453125,-0.9078369140625,-0.1043853759765625,-0.6773971236228629,-0.641856654238287,None
740,48.342,0.7911376953125,-1.00189208984375,0.1356964111328125,-0.6629467188321788,-0.6392861272882596,None
741,48.392,0.51483154296875,-1.107330322265625,-0.1569671630859375,-0.6895788871933415,-0.6247474297385541,None
742,48.442,0.9056854248046875,-1.3150634765625,0.08343505859375,-0.6711803236415561,-0.6177003675043862,None
743,48.492,1.203216552734375,-1.5847320556640625,-0.33447265625,-0.6967761515811388,-0.6022783807492537,None
744,48.542,1.9349365234375,-1.643463134765625,-0.3343505859375,-0.6918286789153292,-0.5914803643362088,None
745,48.602,2.0691375732421875,-0.9510650634765625,-1.423553466796875,-0.6189836594754091,-0.4376503534366882,None
746,48.841,-2.258270263671875,0.132080078125,-0.166107177734375,-0.47012575179723104,-0.4783379183614788,None
747,48.891,-1.080413818359375,-0.51373291015625,-1.0771026611328125,-0.5451408259713307,-0.5732637352336848,Hook
748,48.94,-1.1122589111328125,-1.0977325439453125,-0.83062744140625,-0.5642708454559698,-0.6014438664069525,None
749,48.99,-0.8986358642578125,-1.0401763916015625,-0.2510833740234375,-0.5721875425704462,-0.650840002436522,None
750,49.04,-0.603729248046875,-0.5067901611328125,-0.5847625732421875,-0.7556916852930093,0.6151310169483962,None
751,49.09,-0.1575469970703125,-0.43109130859375,-0.728118896484375,-0.860491824125911,0.1830435356467946,None
752,49.14,0.000640869140625,-0.6131744384765625,-0.5533905029296875,-0.6699898506507503,-0.0007758999988150601,None
753,49.19,0.11065673828125,-0.6965484619140625,-0.727996826171875,-0.7225408765871496,-0.10917098470720905,None
754,49.24,0.513153076171875,-0.76092529296875,-0.4625244140625,-0.5194162791367688,-0.4992994234826726,None
755,49.289,0.30230712890625,-0.8307342529296875,-0.4120025634765625,-0.44430853219880434,-0.3099558853155298,None
756,49.339,0.36993408203125,-1.0262908935546875,-0.3410797119140625,-0.4440530366314437,-0.3387277209326086,None
757,49.389,0.490234375,-1.06268310546875,-0.288116455078125,-0.45918911700992554,-0.3481683016247104,None
758,49.439,0.6571502685546875,-1.134490966796875,-0.1860198974609375,-0.46331452179799965,-0.3570867692610338,None
759,49.489,0.703643798828125,-1.3009033203125,-0.2298583984375,-0.4764032399075784,-0.33692065665943166,None
760,49.539,0.927703857421875,-1.2858123779296875,-0.2482452392578125,-0.48017802175377655,-0.33231679206610587,None
761,49.588,1.104034423828125,-1.2923126220703125,-0.11834716796875,-0.4737556347990969,-0.2989866984200329,None
762,49.638,1.15704345703125,-1.38128662109375,-0.37896728515625,-0.47031562462440624,-0.25088131258803603,None
763,49.688,2.068267822265625,-1.2161407470703125,-0.6693267822265625,-0.43474537960185144,-0.11913481757457814,None
764,49.927,-2.164276123046875,-0.0790863037109375,-0.0178680419921875,-0.37938786566511873,-0.11067445234256415,None
765,49.977,-1.5624542236328125,-0.492156982421875,-0.0064239501953125,-0.3686110119779465,-0.11430347529487528,Hook
766,50.027,-0.604461669921875,-0.8573760986328125,-0.06707763671875,-0.0779976114119357,0.5750347549445091,None
767,50.077,-0.5348663330078125,-1.0139312744140625,-0.641754150390625,-0.12580267171876222,0.5093639432975393,None
768,50.127,-0.6312103271484375,-0.7912445068359375,-0.62225341796875,-0.11251781566947852,0.42477365871039735,None
769,50.177,-0.36126708984375,-0.7070159912109375,-0.4773406982421875,-0.559557333162546,0.38996363477646,None
770,50.226,-0.239898681640625,-0.6248321533203125,-0.3310699462890625,-0.4681930602591643,0.3212747842459113,None
771,50.276,0.1285552978515625,-0.637664794921875,-0.228912353515625,-0.3378739617404847,-0.18642096559026267,None
772,50.326,0.18597412109375,-0.8282012939453125,-0.260467529296875,-0.3000107664377017,-0.20945647011317423,None
773,50.376,0.24822998046875,-0.9230499267578125,-0.373260498046875,-0.3748864262016779,-0.2419066134603319,None
774,50.426,0.2288360595703125,-0.9503021240234375,-0.598052978515625,-0.45484924024684187,-0.24471365996766162,None
775,50.476,-0.2988128662109375,-0.9996795654296875,-1.1100311279296875,-0.5187608240919046,-0.2277219684837733,None
776,50.525,0.2266693115234375,-0.774871826171875,-0.8183135986328125,-0.5780910884654766,-0.23865837625932143,None
777,50.575,0.136474609375,-0.629058837890625,-0.9586181640625,-0.6217313289634899,-0.23675273835498098,None
778,50.625,-0.0164794921875,-0.8179473876953125,-0.65325927734375,-0.6240548879503627,0.01574081511706811,None
779,50.675,0.0638885498046875,-0.6780548095703125,-0.745849609375,-0.7399352786013631,-0.06325500672353178,None
780,50.725,0.0787200927734375,-0.5458984375,-0.7309112548828125,-0.801200671622265,-0.0859708773182526,None
781,50.775,-0.121002197265625,-0.55316162109375,-0.76910400390625,-0.8118311797853859,0.12669517008841108,None
782,50.825,-0.0843505859375,-0.470794677734375,-0.584716796875,-0.778901735449652,0.11166080750821142,None
783,50.874,-0.0127105712890625,-0.418914794921875,-0.607879638671875,-0.8234105984630601,0.01721470427634657,None
784,50.924,-0.0380096435546875,-0.359771728515625,-0.64703369140625,-0.8662660812106683,0.018558306925616275,None
785,50.974,0.02386474609375,-0.1825103759765625,-0.8224945068359375,-0.8994941743796567,0.007412883493001615,None
786,51.024,0.2205657958984375,-0.2313232421875,-0.865570068359375,-0.9215365700123613,0.0008914558356443235,None
787,51.074,-0.1489105224609375,-0.2447357177734375,-0.965118408203125,-0.9429874251195066,0.03879395934983367,None
788,51.124,0.019744873046875,-0.11126708984375,-1.3303375244140625,-0.966593096636938,0.03172329971277798,None
789,51.173,0.154327392578125,-0.0781707763671875,-1.450958251953125,-0.9755581399604698,0.022633206669665125,None
790,51.223,-0.02874755859375,-0.474853515625,-1.05364990234375,-0.9575383479757753,0.09381121500808223,None
791,51.273,-0.69268798828125,-0.722381591796875,-1.4202117919921875,-0.9335383034895677,0.1093511009122323,None
792,51.323,-0.0327606201171875,0.0089111328125,-0.8460235595703125,-0.9499561841697329,0.05467283385042162,None
793,51.373,-0.1823272705078125,0.106597900390625,-1.1177215576171875,-0.9763797181262579,0.057180436244131265,None
794,51.423,0.0301361083984375,-0.1996612548828125,-0.990875244140625,-0.9714112146402838,0.07156833311860278,None
795,51.472,0.0376739501953125,-0.2096405029296875,-0.7779083251953125,-0.9601190188913704,0.08632973628054169,None
796,51.522,-0.1716156005859375,-0.1910400390625,-1.1111602783203125,-0.9698150276872813,0.10475167210510088,None
797,51.572,-0.1062164306640625,-0.1768798828125,-1.018890380859375,-0.9688176990636723,0.10207529506615996,None
798,51.622,-0.072357177734375,-0.2243804931640625,-0.921722412109375,-0.967130430205168,0.10643208023039519,None
799,51.672,-0.0452728271484375,-0.2346954345703125,-1.05010986328125,-0.9669080174290751,0.11745862769664883,None
800,51.722,-0.05206298828125,-0.2978973388671875,-0.8949432373046875,-0.9616080871088942,0.12556290315344357,None
801,51.771,-0.027984619140625,-0.261962890625,-1.0665740966796875,-0.9609863566450219,0.12648870058836004,None
802,51.821,-0.0697174072265625,-0.2668609619140625,-0.932830810546875,-0.9597814881996739,0.1342178489715712,None
803,51.871,-0.04547119140625,-0.2264556884765625,-0.9105072021484375,-0.9595550755939735,0.13822145616820514,None
804,51.921,-0.057708740234375,-0.2682342529296875,-0.914093017578125,-0.9594146133375063,0.13806503167473055,None
805,51.971,-0.1035308837890625,-0.2669677734375,-0.90960693359375,-0.9607975661765121,0.1333223861293892,None
806,52.021,-0.1110382080078125,-0.239959716796875,-1.035552978515625,-0.9645235866686886,0.1285275617434214,None
807,52.071,-0.066497802734375,-0.235198974609375,-1.0421600341796875,-0.9653385359521184,0.12654806086317766,None
808,52.12,-0.0970611572265625,-0.25445556640625,-0.9519195556640625,-0.9636299574002614,0.12493584548783865,None
809,52.17,-0.047576904296875,-0.275604248046875,-1.2879180908203125,-0.9630077371898281,0.12074965532119848,None
