index,time,acc x,acc y,acc z,ori x,ori z,punch
0,0,-0.0384368896484375,-0.825714111328125,-0.5273895263671875,-0.5382805198993287,-0.03920048653590186,None
1,0.05,0.049346923828125,-0.778472900390625,-0.5799560546875,-0.5974266232915539,-0.050767897408300275,None
2,0.1,0.0131988525390625,-0.764190673828125,-0.6847991943359375,-0.6673627786091084,-0.012861718276329806,None
3,0.15,0.0289306640625,-0.76458740234375,-0.6483154296875,-0.6467306847743968,-0.028847934656794024,None
4,0.2,0.001068115234375,-0.750885009765625,-0.6903533935546875,-0.6768118138416616,-0.0010471631190099072,None
5,0.25,0.009307861328125,-0.7732696533203125,-0.634185791015625,-0.634142171691917,-0.009306818043182463,None
6,0.3,0.009063720703125,-0.7676544189453125,-0.5783233642578125,-0.6017183078685987,-0.009429956541205646,None
7,0.349,-0.04083251953125,-0.733428955078125,-0.6425018310546875,-0.6589410129336456,0.041840596665644714,None
8,0.399,-0.0756072998046875,-0.771881103515625,-0.5759124755859375,-0.5980055791982914,0.07826691318453105,None
9,0.449,-0.1145172119140625,-0.7130584716796875,-0.66522216796875,-0.6821543281027536,0.11663063176277767,None
10,0.499,-0.02752685546875,-0.7150115966796875,-0.686676025390625,-0.6926708687964013,0.027756473121211815,None
11,0.549,0.0085296630859375,-0.6775360107421875,-0.7565155029296875,-0.7449213584223133,-0.008398643636652417,None
12,0.599,0.1009979248046875,-0.73443603515625,-0.4890289306640625,-0.5542331896017292,-0.1137218248367492,None
13,0.648,-0.111602783203125,-0.8527069091796875,-0.44342041015625,-0.4613632341167175,0.1153437253635653,None
14,0.698,-0.1356964111328125,-0.8829803466796875,-0.45599365234375,-0.4588509801755864,0.1352912778561325,None
15,0.748,-0.2109375,-0.913421630859375,-0.471771240234375,-0.4588946962933274,0.2009929859117432,None
16,0.798,-0.1984710693359375,-0.87127685546875,-0.529449462890625,-0.5193077213758402,0.19108233054595866,None
17,0.848,-0.2526702880859375,-0.8759307861328125,-0.4911041259765625,-0.48904517746708165,0.24400572502194723,None
18,0.898,-0.1533355712890625,-0.7480621337890625,-0.38348388671875,-0.45618692610802986,0.17944498517807833,None
19,0.947,-0.1771240234375,-0.686431884765625,-0.5836334228515625,-0.6477555800163047,0.19289227795131683,None
20,0.997,0.067596435546875,-0.7704620361328125,-0.7072906494140625,-0.6762615585706323,-0.06449639051389974,None
21,1.047,-0.007568359375,-0.66473388671875,-0.9860382080078125,-0.6902239253159846,-0.1003886870759974,None
22,1.097,-0.23004150390625,-0.7034149169921875,-0.785430908203125,-0.7449297288052477,0.21316471408462984,None
23,1.147,-0.0543365478515625,-0.48846435546875,-0.3704376220703125,-0.6042606324806763,0.0882880672149539,None
24,1.197,0.2231597900390625,-0.408355712890625,0.0032501220703125,0.007958794332516301,-0.47953638516504804,None
25,1.247,0.5460205078125,-0.114715576171875,-0.616363525390625,-0.15989087948338065,-0.5070945883868619,None
26,1.296,0.9132843017578125,-0.1287384033203125,-0.8941650390625,-0.3049385916229599,-0.5142873573459441,None
27,1.346,1.3414459228515625,0.0109405517578125,-1.523956298828125,-0.3616804357935379,-0.4726443632310978,None
28,1.396,1.8811492919921875,-0.882293701171875,-1.432159423828125,-0.44146542224884805,-0.3943075204222584,None
29,1.604,-2.5416107177734375,0.2012786865234375,1.1541900634765625,-0.40338501781612923,-0.2608724886216816,None
30,1.656,-0.5836029052734375,-0.67584228515625,-0.76300048828125,-0.3528949774417207,-0.1726404374298793,UpperCut
31,1.706,0.296173095703125,-0.729461669921875,-1.2139434814453125,-0.37975498263251206,-0.20926232845982692,None
32,1.756,0.7156982421875,-0.494140625,-1.2264251708984375,-0.41877737000941057,-0.22661121170821094,None
33,1.806,0.8607025146484375,-0.5412445068359375,-0.7786865234375,-0.35351858725063845,-0.20362278835069303,None
34,1.856,0.060943603515625,-0.8202667236328125,-0.627655029296875,-0.6076897124871172,-0.05890257701694514,None
35,1.906,-0.0213775634765625,-0.9881744384765625,-0.633941650390625,-0.5870933526958688,-0.055188906212320296,None
36,1.956,-0.309600830078125,-0.6338653564453125,-1.0772247314453125,-0.660321154555611,-0.0764416821131046,None
37,2.005,-0.188446044921875,-0.572540283203125,-1.1017303466796875,-0.7262973563867244,-0.1080897749732748,None
38,2.055,0.3173065185546875,-0.4844970703125,-0.709716796875,-0.8259026250333646,-0.3463915397373327,None
39,2.105,0.15020751953125,-0.4549713134765625,-1.0593109130859375,-0.881937610834381,-0.37591039476456184,None
40,2.155,0.4383544921875,-0.37615966796875,-0.837005615234375,-0.9118336596717757,-0.4386418179546981,None
41,2.205,0.8226470947265625,-0.1154937744140625,-1.0443572998046875,-0.923218421392032,-0.5384361697163288,None
42,2.255,1.5950927734375,-0.1023101806640625,-0.4459075927734375,-0.9560498205346742,-0.5564184243951449,None
43,2.304,1.9038543701171875,-0.0949249267578125,-1.070220947265625,-0.9805791998334222,-0.4933277070133963,None
44,2.554,-2.254241943359375,-0.0838775634765625,1.2532501220703125,-0.9816261675493877,-0.4252856189503096,None
45,2.603,-0.1767120361328125,-0.3996429443359375,-1.8377685546875,-0.9947051715398659,-0.4292015187051238,None
46,2.653,1.2228851318359375,-0.249267578125,-1.742095947265625,-0.9987422972279484,-0.48163437473206144,UpperCut
47,2.703,0.5688323974609375,-0.727142333984375,-1.69500732421875,-0.9888555159873145,-0.4772978756305918,None
48,2.753,0.56591796875,-0.637054443359375,-1.3488616943359375,-0.9758316905874358,-0.47237188072988634,None
49,2.803,0.6232147216796875,-0.66949462890625,-1.0693206787109375,-0.9547205449948921,-0.45424825511549055,None
50,2.853,0.539215087890625,-0.5986785888671875,-0.4921722412109375,-0.6350479686272761,-0.5711170386634234,None
51,2.902,-0.4046478271484375,-0.773895263671875,-0.957427978515625,-0.6274271073125363,-0.5618390578502085,None
52,2.952,0.0897979736328125,-0.5319671630859375,-0.93060302734375,-0.6573401183714715,-0.6325656655602889,None
53,3.002,0.734649658203125,-0.295867919921875,-0.914154052734375,-0.7368058462140344,-0.7011380298762951,None
54,3.052,1.650726318359375,-0.4676055908203125,-1.1324615478515625,-0.8065425161062252,-0.728848319169314,None
55,3.102,1.8674468994140625,-0.4788055419921875,-1.969879150390625,-0.8421019602256186,-0.705546718749561,None
56,3.371,-2.416778564453125,-0.146392822265625,-0.3538818359375,-0.8746538478202017,-0.5601538581063228,None
57,3.471,0.7506561279296875,-0.7645416259765625,-1.93109130859375,-0.904855114916455,-0.5882606435149375,UpperCut
58,3.521,0.9253082275390625,-0.8167877197265625,-1.205047607421875,-0.8837181154029426,-0.6158452180153247,None
59,3.57,0.4275054931640625,-0.5745086669921875,-1.4181671142578125,-0.8620685183269248,-0.6149421295042415,None
60,3.62,0.767425537109375,-0.56365966796875,-0.6317138671875,-0.8383015105202213,-0.6076704300980802,None
61,3.67,0.5257415771484375,-0.46649169921875,-1.048828125,-0.8444392715871182,-0.5991306071848972,None
62,3.72,1.09735107421875,-0.5284881591796875,-0.7180633544921875,-0.8767172907824202,-0.625696179994237,None
63,3.77,1.98193359375,-0.5322723388671875,-0.8935089111328125,-0.9315258245314262,-0.6768802289229968,None
64,4.087,-2.4328460693359375,0.6958770751953125,-0.2972869873046875,-0.9723865814286582,-0.6061621372996516,None
65,4.187,0.629425048828125,-0.85260009765625,-2.046417236328125,-0.9660821487159139,-0.6436760129546608,UpperCut
66,4.237,1.1697540283203125,-0.7147674560546875,-1.1591796875,-0.9662711055428079,-0.6850726536956833,None
67,4.287,1.23345947265625,-0.471160888671875,-1.2851409912109375,-0.9579426022896939,-0.6876593524217155,None
68,4.337,0.748626708984375,-0.3424530029296875,-0.88360595703125,-0.9338427796449771,-0.6897443856499553,None
69,4.387,1.0608673095703125,-0.380218505859375,-0.097747802734375,-0.9494632830207841,-0.6959366689711596,None
70,4.436,0.975128173828125,-0.4668731689453125,-1.1152801513671875,-0.9817184341656472,-0.7211809477299559,None
71,4.785,-2.77288818359375,-0.531219482421875,1.3559112548828125,-0.9844681981205737,-0.6818151888096101,None
72,4.835,0.1999969482421875,-0.3217620849609375,-1.617462158203125,-0.9959809379403167,-0.6479578448935883,None
73,4.896,1.038421630859375,-0.9183502197265625,-1.972381591796875,-0.9920221426634596,-0.6156590984080859,UpperCut
74,4.946,1.3446807861328125,-0.860809326171875,-1.0591278076171875,-0.9873492615448147,-0.5882481087351861,None
75,4.996,1.21795654296875,-0.5217132568359375,-1.3205108642578125,-0.9890270216777252,-0.548320964931296,None
76,5.046,1.0369720458984375,-0.704559326171875,0.0965118408203125,-0.978371162613757,-0.5292208134942324,None
77,5.096,0.727935791015625,-0.243255615234375,-0.6316986083984375,-0.9937673249676519,-0.5635949281042885,None
78,5.145,1.3934326171875,-0.375396728515625,-0.5975799560546875,-0.9981093557303844,-0.6067845567420913,None
79,5.195,1.898101806640625,-0.686553955078125,-1.071624755859375,-0.9938333734188473,-0.6551557536834022,None
80,5.483,-2.7543792724609375,0.01434326171875,2.2066802978515625,-0.9862578869254818,-0.6256792816000818,None
81,5.533,-0.2613525390625,-0.3922119140625,-1.3540191650390625,-0.9587643703584344,-0.609606242973955,None
82,5.583,0.8698577880859375,-0.7492523193359375,-1.955322265625,-0.9521793237062695,-0.6283921187969752,UpperCut
83,5.633,1.226593017578125,-0.5365753173828125,-1.4930419921875,-0.9767817924926339,-0.6218202939298526,None
84,5.682,1.2769622802734375,-0.418304443359375,-0.845306396484375,-0.9809143425966522,-0.5622924990287469,None
85,5.732,0.7979278564453125,-0.4609375,-0.63519287109375,-0.986031597196644,-0.5213321867189441,None
86,5.782,0.68157958984375,-0.570953369140625,-0.3966064453125,-0.5705035738946077,-0.7000840279097037,None
87,5.832,0.6804351806640625,-0.2434844970703125,-1.517120361328125,-0.6444264311257785,-0.7559265561983781,None
88,5.882,1.4774322509765625,-0.7342376708984375,-0.890106201171875,-0.7010607662104219,-0.799135313260239,None
89,6.212,-2.182037353515625,-0.309722900390625,1.2378692626953125,-0.6573705551465134,-0.7205883858766408,None
90,6.262,0.1417388916015625,-0.25042724609375,-1.447052001953125,-0.7679005185985195,-0.7420530661235988,None
91,6.312,0.8292999267578125,-0.625335693359375,-1.6992645263671875,-0.8380705719257717,-0.7368869306557334,UpperCut
92,6.362,0.883819580078125,-0.572540283203125,-0.795440673828125,-0.8303417452616442,-0.7263556142479364,None
93,6.411,0.808929443359375,-0.6183013916015625,-0.710174560546875,-0.8350460540006307,-0.7058377565032149,None
94,6.461,0.589691162109375,-0.425323486328125,-0.40093994140625,-0.6859410026333056,-0.7102194786928545,None
95,6.511,0.4167327880859375,-0.1027679443359375,-1.2183990478515625,-0.7422211856388309,-0.7505973137186089,None
96,6.561,0.637725830078125,-0.5071258544921875,-1.6998748779296875,-0.75784523355372,-0.757070939414798,None
97,6.611,0.55029296875,-0.9356842041015625,-1.4441986083984375,-0.7315289486211145,-0.7536493192242881,None
98,6.661,1.692901611328125,-0.9136810302734375,-1.320892333984375,-0.8041363389921578,-0.7831717145067649,None
99,6.94,-2.3303680419921875,-0.492889404296875,0.7779388427734375,-0.8228309661222818,-0.7623241432076528,None
100,7.005,0.89508056640625,-0.1644134521484375,-2.1789398193359375,-0.8799844403416447,-0.7464915897628414,None
101,7.059,0.675262451171875,-0.7413787841796875,-0.47576904296875,-0.8628800882072752,-0.7374852453236272,UpperCut
102,7.109,0.5651092529296875,-0.5323028564453125,-0.905059814453125,-0.8806351292330591,-0.7399989075438272,None
103,7.159,0.682220458984375,-0.3500823974609375,-1.1460723876953125,-0.863094788896597,-0.7715534150797031,None
104,7.209,0.283203125,-0.2068328857421875,-1.4051971435546875,-0.8775332070404984,-0.7911873534593529,None
105,7.259,0.79937744140625,-0.282470703125,-1.31317138671875,-0.8942953996106507,-0.8222718572922635,None
106,7.309,0.5989990234375,-0.4060211181640625,-1.4619140625,-0.9199057871466532,-0.8317424787372064,None
107,7.358,1.71649169921875,-0.6510009765625,-1.382537841796875,-0.9464643857431777,-0.8535407868617083,None
108,7.408,1.87518310546875,-0.0512237548828125,-1.203643798828125,-0.9642546248517591,-0.8838324599956668,None
109,7.737,-2.07666015625,-0.0093994140625,0.752716064453125,-0.9791750035562681,-0.8786635545984168,None
110,7.837,1.016876220703125,-0.732666015625,-2.272369384765625,-0.9819859055373665,-0.8990067907461352,UpperCut
111,7.887,1.107666015625,-0.44708251953125,-0.835784912109375,-0.9834901834759767,-0.9328345670661979,None
112,7.937,0.96142578125,-0.1154327392578125,-1.3717498779296875,-0.978459212892343,-0.9518944704345034,None
113,7.986,0.79693603515625,-0.3394775390625,-0.642364501953125,-0.9622118361110523,-0.9542450854470675,None
114,8.036,0.554656982421875,-0.2264251708984375,-1.0815582275390625,-0.9714145904244987,-0.9617536485679613,None
115,8.086,0.6614837646484375,-0.38079833984375,-1.215301513671875,-0.9820190072696954,-0.9707274799354927,None
116,8.136,0.9973602294921875,-0.2818450927734375,-1.22283935546875,-0.9874375760141827,-0.9809866720083726,None
117,8.186,1.56646728515625,-0.1501922607421875,-1.7315216064453125,-0.9975536485775817,-0.9891874711570123,None
118,8.445,-2.8585662841796875,-0.5654144287109375,1.28875732421875,-0.9969881625570884,-0.9521408302268095,None
119,8.495,-0.098388671875,-0.352447509765625,-1.8439178466796875,-0.996775189984929,-0.9398538835085419,None
120,8.545,0.8848114013671875,-0.4215850830078125,-1.85784912109375,-0.9932215259604442,-0.9447205502266904,UpperCut
121,8.594,0.823089599609375,-0.71588134765625,-0.6908721923828125,-0.9962171078798471,-0.9397924338414058,None
122,8.644,0.5606536865234375,-0.494049072265625,-0.811279296875,-0.9920273831928663,-0.9471474342699726,None
123,8.694,0.6338653564453125,-0.363922119140625,-1.349273681640625,-0.9896159168365164,-0.9581296373632737,None
124,8.744,0.388397216796875,-0.717071533203125,-1.4050140380859375,-0.9845214243012546,-0.9547768869493178,None
125,8.794,0.4544219970703125,-0.7303314208984375,-1.411163330078125,-0.9821681353236027,-0.9639625746933544,None
126,8.844,0.864410400390625,-0.5300750732421875,-1.3013458251953125,-0.9637707135555241,-0.9801486429327336,None
127,8.894,1.4210205078125,0.0936279296875,-1.0548095703125,-0.9255296406983301,-0.9949721862231466,None
128,9.006,2.798919677734375,0.801483154296875,-3.773345947265625,-0.9014019578076442,-0.981379865448967,None
129,9.203,-2.471832275390625,0.2804718017578125,1.8825531005859375,-0.9427660591169464,-0.9502430095011011,None
130,9.252,-0.007904052734375,0.12371826171875,-0.9388580322265625,-0.888799965036038,-0.9522106896809903,UpperCut
131,9.302,0.481903076171875,-0.520050048828125,-1.8639678955078125,-0.8374028942323163,-0.9483672039173505,None
132,9.352,0.62701416015625,-0.8050384521484375,-0.823577880859375,-0.8615786182633458,-0.9363762871506118,None
133,9.402,0.5383758544921875,-0.608154296875,-0.2444305419921875,-0.3729274712761066,-0.634726049242041,None
134,9.452,0.7599334716796875,-0.1984100341796875,-1.0499114990234375,-0.5370112420246694,-0.6799788076849794,None
135,9.502,0.4524688720703125,-0.4269256591796875,-1.119873046875,-0.568279558365013,-0.6860130686358098,None
136,9.551,0.5383148193359375,-0.4558868408203125,-1.2011260986328125,-0.6097323950959366,-0.708626299170058,None
137,9.609,0.8621978759765625,-0.05419921875,-2.2645111083984375,-0.7214873967343741,-0.7555733052590853,None
138,9.93,-2.2995758056640625,0.0200958251953125,-0.013885498046875,-0.7566032104970136,-0.7024509698041377,None
139,9.98,-0.2088775634765625,-0.0152740478515625,-1.3933563232421875,-0.8476946502954648,-0.699212422486265,None
140,10.03,0.60693359375,-0.3542633056640625,-1.57745361328125,-0.8851559568374394,-0.7418585385312855,UpperCut
141,10.08,0.590667724609375,-0.805816650390625,-1.2683258056640625,-0.8565096992574655,-0.754599937359815,None
142,10.13,0.6367034912109375,-0.630859375,-1.36981201171875,-0.876067091581904,-0.7931468583086846,None
143,10.189,0.53668212890625,-0.5036163330078125,-1.9943084716796875,-0.8850697827299159,-0.8102597907152604,None
144,10.239,0.573211669921875,-0.6102142333984375,-0.8566741943359375,-0.8401717384933788,-0.8169878885736308,None
145,10.289,0.4537353515625,-0.529571533203125,-0.9958648681640625,-0.8496572952562536,-0.8132214984879588,None
146,10.339,0.879669189453125,-0.5922088623046875,-0.528656005859375,-0.8259527722403179,-0.8151316091880135,None
147,10.389,1.745086669921875,-0.22406005859375,-0.69586181640625,-0.851198694686449,-0.8322341573769781,None
148,10.688,-2.008575439453125,0.70245361328125,0.1407012939453125,-0.8906567863521796,-0.8134158498183037,None
149,10.738,-0.2630767822265625,-0.5839996337890625,-1.494537353515625,-0.934868101508551,-0.7480860994675906,None
150,10.788,0.209442138671875,-1.0128326416015625,-1.5399169921875,-0.9541137459593533,-0.7227747572441908,UpperCut
151,10.837,0.8235931396484375,-0.8896026611328125,-1.049041748046875,-0.9622282078076146,-0.7596585183544698,None
152,10.887,0.903045654296875,-0.499237060546875,-0.96728515625,-0.983982255234652,-0.8245944543949985,None
153,10.937,1.122467041015625,-0.3048095703125,-0.893157958984375,-0.9850261722400969,-0.8700191426813729,None
154,10.987,0.3864288330078125,-0.5637664794921875,-0.83148193359375,-0.827685419372318,-0.35901894257360245,None
155,11.037,0.3999176025390625,-0.59814453125,-1.3939208984375,-0.8378861472333943,-0.4310320661518061,None
156,11.087,1.0465545654296875,-0.3538360595703125,-1.41650390625,-0.8924370933930851,-0.5114612970006343,None
157,11.136,1.8097991943359375,-0.2171173095703125,-1.242095947265625,-0.9162349656310282,-0.5766071124467578,None
158,11.445,-2.327789306640625,0.3382415771484375,1.361236572265625,-0.881823615923996,-0.5017636500182918,None
159,11.495,-0.1210784912109375,0.096099853515625,-1.704925537109375,-0.9581828992894253,-0.5490710136580623,UpperCut
160,11.555,0.6280975341796875,-0.43865966796875,-1.9295501708984375,-0.9685811601285805,-0.5819806880562978,None
161,11.605,0.838897705078125,-0.719879150390625,-0.9645538330078125,-0.9509644421426054,-0.5897839621340822,None
162,11.655,0.9510650634765625,-0.470733642578125,-1.3033447265625,-0.9672599675169762,-0.6279583054273226,None
163,11.705,0.67431640625,-0.52197265625,-1.1915740966796875,-0.9606400826268517,-0.6523033572956425,None
164,11.754,0.471710205078125,-0.5735015869140625,-1.027252197265625,-0.9643907840435063,-0.6540871875574976,None
165,11.804,0.728759765625,-0.6383819580078125,-0.906768798828125,-0.967282636075161,-0.6523618936599362,None
166,11.854,0.7900848388671875,-0.4383087158203125,-1.3431549072265625,-0.9883765378155903,-0.6727985847578579,None
167,11.904,1.9989776611328125,-0.03759765625,-1.1876068115234375,-0.9987175355809732,-0.7146988642092074,None
168,12.203,-2.55657958984375,0.50128173828125,0.711151123046875,-0.98384364604584,-0.6709557478375973,None
169,12.293,1.2048492431640625,-0.406341552734375,-2.266693115234375,-0.9929595568608716,-0.7652479151656348,UpperCut
170,12.343,1.2947845458984375,-0.7145538330078125,-1.0831756591796875,-0.9864650692731457,-0.7975673812282741,None
171,12.392,0.8145294189453125,-0.68170166015625,-1.2958221435546875,-0.9803770892802478,-0.8216001036678544,None
172,12.442,0.8509063720703125,-0.43695068359375,-1.666839599609375,-0.9881016570912131,-0.8559842941663571,None
173,12.492,0.864410400390625,-0.234588623046875,-1.2042694091796875,-0.9713557359167926,-0.8939643944949948,None
174,12.542,0.2605438232421875,-0.36236572265625,-0.91796875,-0.9423097129403742,-0.8993134431685778,None
175,12.592,0.25323486328125,-0.245208740234375,-1.1440887451171875,-0.9242013183583798,-0.9182359183963735,None
176,12.642,0.2949371337890625,-0.177490234375,-1.0861663818359375,-0.9094343511181178,-0.9299573203501061,None
177,12.691,0.043182373046875,-0.17645263671875,-0.8371124267578125,-0.9133853719285497,-0.9283467303673889,None
178,12.741,0.6012725830078125,-0.09619140625,-0.809417724609375,-0.9338717799723074,-0.9365442161165577,None
179,12.791,0.983612060546875,-0.2285308837890625,-1.2926483154296875,-0.9680601216360113,-0.9270608691608654,None
180,13.008,-3.2026214599609375,0.8313140869140625,-6.5215606689453125,-0.9102435866218419,-0.9298767371607273,None
181,13.109,-2.4849090576171875,0.3521575927734375,1.8951873779296875,-0.9492381566113626,-0.9281568822430052,None
182,13.159,-0.42547607421875,0.18646240234375,-0.996185302734375,-0.9865261590937837,-0.9070814707139219,None
183,13.209,0.106903076171875,-0.5488128662109375,-1.6703338623046875,-0.9764767767681127,-0.8619671182676898,UpperCut
184,13.258,0.0165557861328125,-1.2987518310546875,-0.8539276123046875,-0.9876992798384677,-0.8187668686400548,None
185,13.308,0.240997314453125,-1.064178466796875,-1.6816253662109375,-0.9983259971836524,-0.7972272560574192,None
186,13.358,0.21820068359375,-0.88970947265625,-1.9001922607421875,-0.9957394093601672,-0.7867892996570106,None
187,13.408,0.1656646728515625,-1.0213470458984375,-1.0632476806640625,-0.9986449647977258,-0.7991946293420472,None
188,13.458,0.499664306640625,-0.7010345458984375,-1.0105743408203125,-0.9999610404974775,-0.8335804857980672,None
189,13.508,0.2025299072265625,-0.5148162841796875,-1.093536376953125,-0.9991113234329884,-0.890673257643904,None
190,13.558,0.2722320556640625,-0.1725616455078125,-0.940155029296875,-0.9994747030043345,-0.9338404234770016,None
191,13.607,0.244384765625,-0.1914825439453125,-0.72821044921875,-0.9993390006029955,-0.9643337564858018,None
192,13.657,0.4752655029296875,-0.0342864990234375,-0.6930694580078125,-0.9971236088774665,-0.9808331323596123,None
193,13.707,0.5809173583984375,-0.095855712890625,-0.8991851806640625,-0.9917904174152978,-0.9870414853363724,None
194,13.757,0.983367919921875,-0.205291748046875,-1.1856536865234375,-0.9800643638905266,-0.9864524582837692,None
195,13.807,1.1379852294921875,-0.5617218017578125,-1.5151824951171875,-0.970702867152668,-0.9813067754914596,None
196,14.097,-2.018951416015625,-0.11138916015625,0.600738525390625,-0.9530108124402394,-0.9601629937561612,None
197,14.147,-0.4748687744140625,-0.29888916015625,-1.0545501708984375,-0.9216432644367103,-0.9455206077229064,UpperCut
198,14.247,0.21966552734375,-0.58984375,-1.9372711181640625,-0.9149300604835678,-0.9324891133591453,None
199,14.316,0.5732879638671875,-0.1966705322265625,-1.91973876953125,-0.904924373755156,-0.9607460121352058,None
200,14.366,0.543487548828125,-0.3814544677734375,-1.5520477294921875,-0.8984399371522229,-0.9715319322555586,None
201,14.416,1.2190093994140625,-0.2920379638671875,-1.3092041015625,-0.871724682139352,-0.9866632623829735,None
202,14.466,1.6554412841796875,-0.3560791015625,-1.1865386962890625,-0.8391522907537716,-0.9944292583046247,None
203,14.785,-2.141326904296875,-0.2343597412109375,0.2707977294921875,-0.8328954760392517,-0.9846532479891841,None
204,14.914,0.640869140625,-0.5045928955078125,-1.98968505859375,-0.8445839149345241,-0.9905213024887151,UpperCut
205,14.964,1.018798828125,-0.364227294921875,-1.5237884521484375,-0.8350349647698371,-0.9978049968480988,None
206,15.014,1.2570648193359375,-0.1312103271484375,-1.2176971435546875,-0.866786737226006,-0.9996796633026028,None
207,15.064,0.6162872314453125,-0.3908233642578125,-1.366302490234375,-0.9053687371210034,-0.9999835126294939,None
208,15.114,0.9523468017578125,-0.3548736572265625,-1.3254241943359375,-0.88059964618935,-0.9999108543727638,None
209,15.164,1.7332000732421875,-0.5350341796875,-1.26922607421875,-0.8286802215868331,-0.9987915858771215,None
210,15.452,-2.461578369140625,0.43878173828125,1.350921630859375,-0.8128016342438192,-0.9969877766876535,None
211,15.501,-0.970916748046875,-0.5694122314453125,-0.45947265625,-0.7881563613208921,-0.9872461870239543,UpperCut
212,15.551,-0.3659210205078125,-0.672119140625,-1.5261688232421875,-0.7245707625180803,-0.9793211986381126,None
213,15.601,-0.06048583984375,-1.11114501953125,-1.6909942626953125,-0.7274131040336694,-0.9737347961717411,None
214,15.651,-0.3153533935546875,-1.1822509765625,-1.5255279541015625,-0.7447472106479072,-0.9786069646233847,None
215,15.701,0.4692840576171875,-0.7189178466796875,-1.443389892578125,-0.6663102245857955,-0.982874534380032,None
216,15.751,0.2691192626953125,-0.8832244873046875,-1.63250732421875,-0.5936075384231319,-0.9919943261343842,None
217,15.8,0.6649627685546875,-0.26922607421875,-1.209686279296875,-0.513754398048515,-0.9994618085984465,None
218,15.85,0.6720123291015625,-0.17047119140625,-1.02630615234375,-0.5445916393757411,-0.9989677831941384,None
219,15.9,1.021026611328125,-0.0312957763671875,-0.4788055419921875,-0.48321737856763014,-0.9973360524262327,None
220,15.95,1.2122650146484375,-0.5431365966796875,-0.826751708984375,-0.4417617893616378,-0.9940011589823115,None
221,16,1.4820709228515625,-0.154571533203125,-1.2252197265625,-0.38380636427689213,-0.998226137553389,None
222,16.28,-2.51947021484375,-0.18548583984375,0.753631591796875,-0.33991317395811005,-0.9996809072801192,None
223,16.33,-0.312835693359375,-0.5239715576171875,-1.0578765869140625,-0.27550090539330246,-0.9991555320675595,UpperCut
224,16.38,0.2266693115234375,-0.9228363037109375,-1.3230743408203125,-0.28663430388187017,-0.9996240543493083,None
225,16.43,0.50421142578125,-0.5717620849609375,-1.143768310546875,-0.27753278900747885,-0.9998351446838243,None
226,16.48,0.92047119140625,0.0628814697265625,-0.9439849853515625,-0.30608288337914386,-0.9923350994196531,None
227,16.529,0.6611785888671875,-0.2019805908203125,-1.1452789306640625,-0.34988468442488435,-0.9853197779241775,None
228,16.579,0.7499847412109375,-0.071136474609375,-1.3132171630859375,-0.35471178386536995,-0.9657642312517012,None
229,16.629,0.722991943359375,0.126556396484375,-1.9306640625,-0.28049634257638045,-0.9282370957051707,None
230,16.679,1.123046875,0.204925537109375,-1.37298583984375,-0.24398841041219735,-0.8955345566227806,None
231,16.729,1.394805908203125,0.1854248046875,-0.7231292724609375,-0.19273509691229626,-0.8905081948807185,None
232,16.779,1.7021331787109375,0.0712127685546875,-0.779388427734375,-0.08285793177541736,-0.906846446614262,None
233,17.01,-4.7387237548828125,1.8494110107421875,0.5189361572265625,-0.1141340553595373,-0.9290557423333873,None
234,17.078,-2.2928009033203125,-0.1040496826171875,0.4507904052734375,-0.1166312481048596,-0.9538184261285244,None
235,17.127,-0.2055511474609375,-0.5792694091796875,-1.945159912109375,0.016719322640271848,-0.9494615173501315,UpperCut
236,17.246,1.13848876953125,-0.371063232421875,-1.9750823974609375,-0.05823981937900446,-0.921831700255554,None
237,17.296,0.8419036865234375,-0.257781982421875,-1.668304443359375,-0.12087308873909655,-0.8830411743797278,None
238,17.346,0.4307708740234375,-0.1454315185546875,-1.5944366455078125,-0.1353279934947121,-0.8359775393910845,None
239,17.395,0.6135101318359375,-0.1134185791015625,-1.205535888671875,-0.1553613679505251,-0.8023605564611681,None
240,17.445,0.7903289794921875,0.065093994140625,-1.1445770263671875,-0.15639768228101933,-0.7609490974676243,None
241,17.495,1.1473236083984375,0.2206268310546875,-0.678314208984375,-0.09122700618578708,-0.7308151370225942,None
242,17.545,1.3940887451171875,0.5277862548828125,-0.6953887939453125,0.010818572960573774,-0.7109035878525558,None
243,17.613,2.267181396484375,1.0899810791015625,-2.4769439697265625,0.1522550722345122,-0.8141260138404534,None
244,17.855,-1.9892578125,0.1814422607421875,0.905792236328125,0.14618473622261852,-0.8362783973203207,None
245,17.905,-0.4652099609375,-0.3673095703125,-1.731597900390625,0.25014016818888457,-0.8284941995019068,None
246,18.093,0.91064453125,0.16668701171875,-2.0067138671875,0.21004568604114834,-0.781860730798552,UpperCut
247,18.143,0.818450927734375,0.087646484375,-1.4856109619140625,0.1528609651150346,-0.739041447060334,None
248,18.193,0.9038848876953125,-0.0065765380859375,-1.0103607177734375,0.08998516714137919,-0.7145195249694973,None
249,18.243,0.870208740234375,-0.005035400390625,-0.6813812255859375,0.0897886257336685,-0.6682642454985461,None
250,18.293,1.0556793212890625,0.3604736328125,-0.9834747314453125,0.09066066189962503,-0.6832026543365914,None
251,18.342,1.0066680908203125,0.2742919921875,-0.8226776123046875,0.12208460704972816,-0.7276385850347028,None
252,18.392,1.155914306640625,0.1429443359375,-1.2702789306640625,0.20504015975176385,-0.8103291855292727,None
253,18.673,-2.119964599609375,-0.1776275634765625,0.303741455078125,0.2470655600214373,-0.8573917359952244,None
254,18.722,-0.3238525390625,-0.567535400390625,-1.502349853515625,0.36208737182896156,-0.8572008711010638,UpperCut
255,18.782,0.7412261962890625,-0.03521728515625,-2.1385498046875,0.42647311390367176,-0.8119775821762689,None
256,18.832,1.10076904296875,-0.1301422119140625,-0.8587493896484375,0.4166900368177909,-0.8009650304382229,None
257,18.882,1.020721435546875,0.296844482421875,-1.6311187744140625,0.37763410158004784,-0.7549271813497689,None
258,18.932,1.12371826171875,-0.1261138916015625,-0.746826171875,0.37514697502411737,-0.7104452111461274,None
259,18.982,0.7517547607421875,-0.21307373046875,-1.7359619140625,0.3202661427245784,-0.6819019161051756,None
260,19.031,1.42022705078125,0.396697998046875,-1.1724700927734375,0.5534433495760755,-0.5791075500238579,None
261,19.081,0.75152587890625,0.1143646240234375,-0.989105224609375,0.5919527867582716,-0.5049571528582574,None
262,19.131,1.013092041015625,0.068634033203125,-0.718963623046875,0.6025151323445674,-0.45306936530736863,None
263,19.181,1.4163818359375,-0.0994110107421875,-0.6986236572265625,0.5876662040392395,-0.5029315624229268,None
264,19.439,-2.4936981201171875,-0.161407470703125,1.769256591796875,0.6732199746104107,-0.45033313841946304,None
265,19.489,0.1396331787109375,-0.4287109375,-1.3968658447265625,0.7229038599330198,-0.4413094951952108,None
266,19.539,0.5037078857421875,-0.6424407958984375,-1.690338134765625,0.7330781410409768,-0.42157739088428836,UpperCut
267,19.588,0.6179962158203125,-0.3646240234375,-0.9394073486328125,0.7355844715471821,-0.35326001959377895,None
268,19.638,0.681793212890625,0.1759796142578125,-0.62158203125,0.7333826615364356,-0.306727706936193,None
269,19.688,0.5014495849609375,0.0439453125,-1.3509521484375,0.7273364391766003,-0.2758434210143324,None
270,19.738,0.51568603515625,-0.091705322265625,-1.656951904296875,0.7215470839739129,-0.2612799837351484,None
271,19.799,0.8856353759765625,0.036834716796875,-1.9947967529296875,0.768687651981452,-0.1860801466310473,None
272,19.849,0.9123077392578125,-0.1012420654296875,-1.2427825927734375,0.7748722153863141,-0.15523553835795267,None
273,19.899,0.8957977294921875,-0.0709381103515625,-1.4027557373046875,0.7951527306979853,-0.10863612605661706,None
274,19.949,0.9978790283203125,-0.1490936279296875,-1.1032867431640625,0.8205001361793771,-0.10062592085685208,None
275,19.998,1.64508056640625,0.0231781005859375,-0.9455108642578125,0.848418858560103,-0.142559301722185,None
276,20.277,-2.327667236328125,0.1239166259765625,0.9346923828125,0.8425792981874652,-0.22315200747961073,None
277,20.327,-0.2276458740234375,-0.42132568359375,-0.8443603515625,0.8760337379835608,-0.23836090244961336,None
278,20.377,0.5629425048828125,-0.748016357421875,-2.1185302734375,0.9285269439134062,-0.25110300795251583,UpperCut
279,20.427,0.670654296875,-0.5447235107421875,-0.9477691650390625,0.9252657531929207,-0.23777884280983844,None
280,20.477,1.03106689453125,0.0291595458984375,-1.3069000244140625,0.9424055463042068,-0.14817964089792243,None
281,20.527,0.6972503662109375,-0.1559295654296875,-1.2095947265625,0.9497405502609668,-0.07444955292752185,None
282,20.577,0.54583740234375,-0.2776947021484375,-1.554473876953125,0.9462790073578281,-0.03304039697134551,None
283,20.626,0.7259063720703125,-0.3333892822265625,-1.3305511474609375,0.964426821755486,0.061273299096,None
284,20.676,1.06500244140625,0.4829254150390625,-1.860015869140625,0.9902482408192718,0.17632358676740129,None
285,20.726,1.2001190185546875,0.3821868896484375,-1.152191162109375,0.9930653186832461,0.2823201240701686,None
286,20.776,1.275909423828125,0.34722900390625,-0.813201904296875,0.9835088010265892,0.2881936540319863,None
287,20.826,1.731842041015625,0.2312774658203125,-1.401397705078125,0.9838021416436823,0.23912530099429058,None
288,21.013,-7.25164794921875,1.2092742919921875,-1.4013519287109375,0.9361875151458264,0.22732401145469205,None
289,21.095,-2.362030029296875,0.0280303955078125,1.373016357421875,0.9493039250706006,0.18564055365917953,None
290,21.145,-0.0514984130859375,-0.7710113525390625,-1.6197357177734375,0.9761328346208787,0.19479931422108124,None
291,21.195,0.2384185791015625,-0.7625274658203125,-1.9376678466796875,0.9746287844994358,0.2288707332345278,UpperCut
292,21.244,0.984039306640625,-0.3322601318359375,-1.340118408203125,0.9815575834452939,0.26343043530815574,None
293,21.294,1.053497314453125,-0.2426300048828125,-0.87420654296875,0.9677282142730979,0.30250115314748427,None
294,21.344,0.9073486328125,-0.0926971435546875,-1.3296356201171875,0.9625629273400547,0.3354483830459283,None
295,21.394,0.9665679931640625,-0.23748779296875,-0.77056884765625,0.942627526469299,0.3461205168574261,None
296,21.444,0.7778472900390625,-0.1601409912109375,-0.811614990234375,0.9366153147961458,0.36569560105737875,None
297,21.494,0.798583984375,-0.1819610595703125,-0.9518280029296875,0.9366949089327906,0.3919493051325072,None
298,21.543,0.83123779296875,-0.242523193359375,-0.9105224609375,0.9521050090626588,0.4244967961093209,None
299,21.593,1.20245361328125,-0.04315185546875,-1.002410888671875,0.9710674371555214,0.48135239551152925,None
300,21.922,-2.5986328125,0.72247314453125,0.2075042724609375,0.9677343246475528,0.41980877562006413,None
301,21.972,-0.175506591796875,-0.2617950439453125,-2.103271484375,0.9949523845522221,0.4837368719474061,None
302,22.072,1.2816314697265625,-0.200286865234375,-2.0202484130859375,0.9998736397837793,0.5681688847138933,UpperCut
303,22.122,1.0042877197265625,-0.464508056640625,-1.032135009765625,0.9970096030850089,0.6113776942458532,None
304,22.171,0.6441192626953125,-0.116729736328125,-1.68914794921875,0.9910083306906967,0.693703529866242,None
305,22.221,1.0646820068359375,-0.066925048828125,-1.3607330322265625,0.9957358180448652,0.7581311116771694,None
306,22.271,0.8993072509765625,-0.0269622802734375,-1.29095458984375,0.9972303515309133,0.8146222794800447,None
307,22.321,1.0371856689453125,0.0531463623046875,-0.8636932373046875,0.9979305625310086,0.8489412265105033,None
308,22.371,0.8222808837890625,0.0868072509765625,-0.919036865234375,0.999554637587263,0.8690508074658932,None
309,22.421,1.2485504150390625,0.1048583984375,-0.7905731201171875,0.999999275377929,0.8671058034157294,None
310,22.471,1.661468505859375,0.0756378173828125,-1.2505340576171875,0.9993811585810677,0.8364504802175659,None
311,22.74,-2.1448516845703125,0.4084930419921875,0.4545745849609375,0.9904758071303988,0.8247136053341162,None
312,22.79,0.16168212890625,-0.6853179931640625,-0.938232421875,0.979490330262645,0.8269365160499054,None
313,22.849,1.0060577392578125,-0.5774078369140625,-2.22454833984375,0.9725764468404952,0.8568061419573968,UpperCut
314,22.899,1.260223388671875,-0.681182861328125,-0.671417236328125,0.9609117949334242,0.8621248095281777,None
315,22.949,1.1677703857421875,-0.2968902587890625,-1.2852935791015625,0.9679185563651141,0.8916854788497559,None
316,22.999,0.724578857421875,-0.5265045166015625,-1.2230224609375,0.9856315735085004,0.9184012542175987,None
317,23.049,0.6672821044921875,-0.07501220703125,-1.21185302734375,0.9894575993321064,0.9516406949879842,None
318,23.099,0.4257049560546875,-0.212371826171875,-1.0462646484375,0.991861732399242,0.9696834417015413,None
319,23.148,0.491546630859375,0.014495849609375,-1.392669677734375,0.985551273013124,0.9853587703850979,None
320,23.198,0.358551025390625,-0.0718536376953125,-1.0523529052734375,0.9833684726760277,0.9921622106902336,None
321,23.248,0.394622802734375,0.05841064453125,-0.7972564697265625,0.9845970930549296,0.9963735161011075,None
322,23.298,0.8504486083984375,0.0877685546875,-0.7962493896484375,0.9745055303926536,0.9980047743407283,None
323,23.348,1.1287078857421875,0.025146484375,-1.2948455810546875,0.9621788364193897,0.9964162310206486,None
324,23.647,-2.693450927734375,-0.064178466796875,1.296844482421875,0.9450992643364472,0.9936630914160882,None
325,23.737,0.6877899169921875,-0.59375,-2.02520751953125,0.9292421262948766,0.9960136785537815,UpperCut
326,23.786,1.3058013916015625,-0.3430023193359375,-1.3876190185546875,0.9105077930707707,0.9999744674233836,None
327,23.836,1.4774627685546875,-0.1904144287109375,-1.2755126953125,0.9228391223849164,0.9976891059550941,None
328,23.886,0.73529052734375,-0.2420196533203125,-1.7653656005859375,0.9347344781016665,0.9902725304553256,None
329,23.936,0.631011962890625,-0.027008056640625,-1.675689697265625,0.9562499607771672,0.9792771316287309,None
330,23.986,0.3753662109375,-0.3758697509765625,-0.7807159423828125,0.980395310509703,0.9750066596796246,None
331,24.036,0.43096923828125,-0.080230712890625,-1.2895965576171875,0.9743131282749127,0.9501569224695936,None
332,24.085,0.30902099609375,-0.0402679443359375,-1.1471710205078125,0.9687568888878685,0.9270649451688843,None
333,24.135,0.451629638671875,0.0991058349609375,-1.00299072265625,0.9528535855045852,0.8932389332856359,None
334,24.185,0.542999267578125,0.1676025390625,-0.680450439453125,0.9352966480877749,0.865327714750115,None
335,24.235,0.734649658203125,0.335479736328125,-0.6006317138671875,0.9048436160595903,0.845800170348599,None
336,24.285,1.0412750244140625,0.5548553466796875,-0.903900146484375,0.8549615240511974,0.8620093021130728,None
337,24.335,1.56195068359375,0.5381622314453125,-2.0204620361328125,0.8896592827888538,0.9155624040457108,None
338,24.594,-2.643524169921875,0.8140869140625,0.070953369140625,0.842490794738604,0.9068430676989685,None
339,24.713,0.72503662109375,-0.9238128662109375,-1.9857177734375,0.8415797883744259,0.8833492917910606,UpperCut
340,24.763,1.115203857421875,-0.497711181640625,-1.60394287109375,0.8110418895374444,0.8406723220287032,None
341,24.813,1.10052490234375,-0.161834716796875,-1.462432861328125,0.8459135985827183,0.7802377235107578,None
342,24.863,0.9061737060546875,-0.08258056640625,-1.2149810791015625,0.8821514604726263,0.7168252043269379,None
343,24.913,0.740020751953125,-0.1616668701171875,-0.88885498046875,0.9180421042007817,0.6781347249947609,None
344,24.963,0.7233734130859375,-0.115966796875,-0.81494140625,0.9452871725609532,0.6446619291781012,None
345,25.012,3.7939300537109375,5.4647216796875,-3.5164642333984375,0.9667835741163585,0.5959746136698635,None
346,25.062,0.020599365234375,-0.212432861328125,-0.98175048828125,0.995880478473927,0.69686594341751,None
347,25.112,0.170654296875,-0.3235931396484375,-1.283721923828125,0.997758830508988,0.658674504953738,None
348,25.162,0.4256439208984375,-0.297119140625,-0.659271240234375,0.9975792111917087,0.6535807137896199,None
349,25.212,0.40118408203125,-0.211273193359375,-0.7068328857421875,0.9897482903282093,0.6231461839457528,None
350,25.262,0.443267822265625,-0.2429656982421875,-0.8759918212890625,0.983555704238876,0.6139638936899449,None
351,25.312,0.450225830078125,-0.187713623046875,-1.239837646484375,0.9606942973083672,0.6114578014921652,None
352,25.361,0.3309478759765625,-0.244476318359375,-0.993804931640625,0.9518953507046864,0.6364508486450994,None
353,25.411,0.1777191162109375,-0.2852935791015625,-0.9532012939453125,0.9473218623001766,0.6728566156521654,None
354,25.461,-0.0008544921875,-0.441650390625,-0.8574676513671875,0.9514524060543305,0.71407119814535,None
355,25.511,0.140228271484375,-0.280303955078125,-1.1834259033203125,0.9375107964857977,0.7357401303078142,None
356,25.561,0.2445526123046875,-0.211334228515625,-1.25042724609375,0.9164728143007989,0.7402746131366335,None
357,25.611,0.1845703125,-0.254180908203125,-0.8946533203125,0.9212230787764053,0.7600020147805033,None
358,25.66,0.1139373779296875,-0.247039794921875,-0.7613677978515625,0.930820968249379,0.7840840548233451,None
359,25.71,0.032379150390625,-0.1937408447265625,-0.783782958984375,0.936652813613414,0.7985044298729941,None
360,25.76,-0.13299560546875,-0.1409912109375,-1.0077056884765625,0.9422136414562068,0.8026218912510104,None
361,25.81,0.027130126953125,-0.05511474609375,-0.762481689453125,0.9389421346664376,0.7942980401065746,None
362,25.86,0.13726806640625,-0.0670623779296875,-0.5184783935546875,0.9281582087941612,0.784694365383901,None
363,25.91,0.524932861328125,0.046051025390625,-0.535308837890625,0.9080761988658219,0.7643701435170377,None
364,26.229,-2.5410003662109375,-0.2434844970703125,0.995147705078125,0.9004729563998349,0.7790393476228754,UpperCut
365,26.278,0.10247802734375,-0.2610321044921875,-1.4469451904296875,0.8667204176054712,0.732194280687839,None
366,26.328,0.8436737060546875,-0.2112884521484375,-1.8684234619140625,0.8743988357011768,0.7288229686921326,None
367,26.378,0.7290496826171875,-0.6200714111328125,-1.1509857177734375,0.878202073776689,0.7096380850098467,None
368,26.428,0.603363037109375,-0.625579833984375,-1.4622650146484375,0.8588236260179773,0.6560365185259764,None
369,26.478,0.8251953125,-0.2699432373046875,-1.5328216552734375,0.8559544667126936,0.6259745124738219,None
370,26.528,0.732696533203125,-0.3094482421875,-0.988128662109375,0.845183742460242,0.5730108909350891,None
371,26.578,0.6210174560546875,-0.14739990234375,-1.0909271240234375,0.8522163353857687,0.5243249865995813,None
372,26.627,0.468597412109375,-0.215728759765625,-1.05706787109375,0.8506211203469912,0.4677456851152082,None
373,26.677,0.430938720703125,-0.0551605224609375,-1.369354248046875,0.8528818063293736,0.41897579352066466,None
374,26.727,0.2015533447265625,-0.167266845703125,-1.072418212890625,0.8590598452803926,0.37427389160601593,None
375,26.777,0.334930419921875,-0.0689544677734375,-0.9471282958984375,0.8452140457028309,0.3466198960432283,None
376,26.827,0.3239288330078125,-0.0583343505859375,-0.8892974853515625,0.8478863285817019,0.3375785363089821,None
377,26.877,0.1825714111328125,-0.0545654296875,-0.9410552978515625,0.8430562069395547,0.3392121642380289,None
378,26.926,0.11474609375,-0.1012725830078125,-0.9327239990234375,0.8437169340191547,0.3573428832777335,None
379,26.976,0.0248870849609375,-0.2181243896484375,-1.0311431884765625,0.84040633351559,0.37944799520305633,None
380,27.026,-0.0135040283203125,-0.22906494140625,-1.10638427734375,0.8329869017111508,0.40652169976184727,None
381,27.076,-0.0545806884765625,-0.2212982177734375,-0.9466400146484375,0.8359684849780188,0.42497175595718784,None
382,27.126,-0.2465057373046875,-0.208770751953125,-0.669525146484375,0.8370117103477166,0.42989051216334506,None
383,27.176,-0.0854644775390625,-0.016448974609375,-0.54473876953125,0.8167028421532938,0.42050703058728855,None
384,27.225,-0.000518798828125,0.041595458984375,-0.59344482421875,0.7726171898675864,0.4075814135920478,None
385,27.275,0.61083984375,-0.0677337646484375,-0.78118896484375,0.7105212452593241,0.4273619000331544,None
386,27.325,1.90570068359375,0.1156005859375,-1.4293975830078125,0.6380285459828176,0.4078439586672252,None
387,27.594,-2.192901611328125,-0.34881591796875,0.8085174560546875,0.6202396488761468,0.46893284888663955,None
388,27.644,0.03289794921875,-0.5272216796875,-0.7894744873046875,-0.8316098747387867,-0.03463297118980917,None
389,27.694,0.464141845703125,-0.1051483154296875,-1.3116912841796875,-0.8621518316980178,-0.11761677649115848,UpperCut
390,27.744,0.7575531005859375,0.27703857421875,-1.9378814697265625,-0.8828076636257352,-0.22790923756054504,None
391,27.794,0.58807373046875,-0.3572540283203125,-1.3580780029296875,-0.8870803606146492,-0.24455310225833435,None
392,27.844,0.606719970703125,-0.067962646484375,-1.5820770263671875,-0.881258183993572,-0.3235122332543268,None
393,27.893,0.506866455078125,-0.1263427734375,-1.8329010009765625,-0.9017339297161086,-0.378385938014631,None
394,27.943,0.629150390625,-0.106231689453125,-1.59356689453125,-0.9167683525697066,-0.4258179825348027,None
395,27.993,0.5237274169921875,-0.071868896484375,-1.3416900634765625,-0.909890280986398,-0.46607490826639153,None
396,28.043,0.381072998046875,-0.0330963134765625,-1.1229400634765625,-0.8890232838025913,-0.4985904617781207,None
397,28.093,0.2346038818359375,-0.099853515625,-1.035247802734375,-0.869642394665306,-0.5124945625525233,None
398,28.143,0.2156829833984375,-0.0650634765625,-0.810699462890625,-0.847941736357943,-0.5252517225031823,None
399,28.192,0.240447998046875,-0.0711669921875,-0.8215789794921875,-0.835326052262095,-0.5247542226693097,None
400,28.242,0.2253570556640625,-0.1465606689453125,-0.8346099853515625,-0.8194901909763534,-0.5062527808923813,None
401,28.292,0.103118896484375,-0.2432861328125,-0.94927978515625,-0.8201981440131773,-0.4834447420073615,None
402,28.342,0.088409423828125,-0.1847991943359375,-0.785797119140625,-0.8251050078712706,-0.46357828095934844,None
403,28.392,-0.02960205078125,-0.1769561767578125,-0.8006591796875,-0.845783491951091,-0.4375886110809282,None
404,28.442,-0.00738525390625,-0.131988525390625,-0.9543609619140625,-0.8895768082849429,-0.4176465740896002,None
405,28.491,-0.0489501953125,-0.0928955078125,-1.1246795654296875,-0.9207876575354869,-0.4206578696666729,None
406,28.541,0.1269683837890625,-0.0846710205078125,-0.9375,-0.9300231179620844,-0.44558854960248145,None
407,28.591,-0.0335845947265625,-0.1160888671875,-0.973846435546875,-0.9335011867584498,-0.4870210910957699,None
408,28.641,0.1692657470703125,0.048553466796875,-0.89111328125,-0.9283499858305619,-0.5592904544613864,None
409,28.691,0.2635040283203125,0.0228118896484375,-0.74774169921875,-0.9285096527852923,-0.611749594161524,None
410,28.741,0.5821075439453125,0.2530975341796875,-1.12945556640625,-0.942791613759204,-0.6408106076827785,None
411,28.791,0.930908203125,0.134613037109375,-1.446868896484375,-0.9487212798612799,-0.6170065434216617,None
412,28.84,1.705078125,0.0468597412109375,-1.9356536865234375,-0.9421368757186647,-0.5768664150666324,None
413,29.017,-5.0335235595703125,0.7508087158203125,0.36309814453125,-0.9173976502945894,-0.4442360004421521,None
414,29.08,-2.438201904296875,0.262237548828125,0.5354766845703125,-0.9408662511812845,-0.41760125639186374,None
415,29.129,-0.6405029296875,-0.161895751953125,-1.8044281005859375,-0.9707359634609941,-0.3999260352455624,None
416,29.179,0.2093963623046875,-0.27783203125,-1.3158416748046875,-0.9819864561646391,-0.40371186845576396,None
417,29.229,0.1873321533203125,-0.1655120849609375,-1.3797760009765625,-0.9846508714894506,-0.43246168392726836,None
418,29.279,0.13287353515625,-0.3698883056640625,-1.317718505859375,-0.9886356023589761,-0.4574736445203296,None
419,29.349,0.2176666259765625,0.113067626953125,-2.0886993408203125,-0.998810012332819,-0.5462449085860137,None
420,29.399,0.5756683349609375,0.304107666015625,-1.6472625732421875,-0.997329813779236,-0.5979561742785356,None
421,29.448,1.453948974609375,0.5601043701171875,-1.918731689453125,-0.9368988786060451,-0.696556119944446,None
422,29.62,0.793365478515625,-0.025970458984375,-5.66424560546875,-0.985584263064333,-0.5365612877411214,None
423,29.787,-2.7046966552734375,-1.4552764892578125,0.4880828857421875,-0.9968505297075867,-0.36109795353125324,None
424,29.867,0.9884033203125,-0.131134033203125,-2.1132049560546875,-0.999363210826133,-0.38187294694048274,UpperCut
425,29.917,0.650543212890625,-0.538482666015625,-0.8073577880859375,-0.9999999500996114,-0.36740234363938773,None
426,29.967,0.6949005126953125,-0.38531494140625,-1.296875,-0.9998298106718377,-0.3577884117372308,None
427,30.017,0.5735931396484375,-0.3369903564453125,-1.62152099609375,-0.9990857499513617,-0.3634277594584174,None
428,30.066,0.541534423828125,-0.37493896484375,-1.4302825927734375,-0.9942858689065824,-0.40146302864423805,None
429,30.116,0.8922882080078125,-0.15338134765625,-1.6988677978515625,-0.9871378283596014,-0.4286707580031571,None
430,30.166,0.9871978759765625,-0.324066162109375,-0.7652740478515625,-0.9789966220395403,-0.4949614172898197,None
431,30.216,1.2296600341796875,-0.1046295166015625,-0.652130126953125,-0.9590614627452841,-0.5504992437344431,None
432,30.266,1.364410400390625,-0.1402587890625,-0.6411895751953125,-0.9330942210615008,-0.5967775181137935,None
433,30.565,-2.9859619140625,-0.482208251953125,0.172821044921875,-0.9183287038062279,-0.5981307174160985,None
434,30.615,0.6141357421875,0.1783294677734375,-1.9141693115234375,-0.8544400907296148,-0.6630294132084127,None
435,30.665,1.2790679931640625,0.0088653564453125,-1.8770751953125,-0.8467509629719561,-0.7041352811553695,UpperCut
436,30.714,1.0457305908203125,-0.0658416748046875,-0.9988555908203125,-0.885113937375249,-0.6789883482450922,None
437,30.764,0.4288787841796875,-0.4189453125,-0.934783935546875,-0.8822326264068635,-0.6747032858859807,None
438,30.814,-0.123291015625,-0.422027587890625,-1.989898681640625,-0.8628907854026813,-0.6623818334125569,None
439,30.894,0.2903900146484375,-0.3614654541015625,-1.9999237060546875,-0.83590792880699,-0.7240087391921761,None
440,30.944,0.6434783935546875,-0.21795654296875,-1.104400634765625,-0.7824158992484577,-0.7596818109613079,None
441,30.994,0.9428863525390625,-0.024627685546875,-0.8122711181640625,-0.773671055991957,-0.8233696914572393,None
442,31.043,1.058929443359375,0.0132293701171875,-0.6223602294921875,-0.7759010854669218,-0.8537724244794965,None
443,31.093,1.077056884765625,0.1331939697265625,-1.3280029296875,-0.7544514014338197,-0.8652372514214669,None
444,31.392,-2.6974945068359375,-0.4991607666015625,0.9555206298828125,-0.7898391295226665,-0.7352326736886853,None
445,31.442,0.125213623046875,-0.1409912109375,-1.3298492431640625,-0.7088262599850356,-0.753886318803126,None
446,31.492,0.7615966796875,-0.1357574462890625,-1.9093017578125,-0.6772353584582691,-0.7709451425851029,UpperCut
447,31.542,0.568878173828125,-0.432220458984375,-0.9914093017578125,-0.704585425659521,-0.7924017452176078,None
448,31.592,0.76397705078125,-0.4156951904296875,-1.9060821533203125,-0.7125663054945435,-0.8148139905218483,None
449,31.641,0.4857635498046875,-0.544769287109375,-1.5791168212890625,-0.6903838058650802,-0.8422972872742929,None
450,31.691,0.2784271240234375,-0.562225341796875,-1.528533935546875,-0.6986303281116306,-0.8727799373125663,None
451,31.741,0.73419189453125,-0.1222076416015625,-1.6303253173828125,-0.5643036094915734,-0.9207028737313693,None
452,31.791,0.627716064453125,-0.041412353515625,-1.2625274658203125,-0.5193948590010473,-0.9479659371961292,None
453,31.841,0.3986663818359375,-0.2047576904296875,-0.57769775390625,-0.6048374326342998,-0.9598242248266445,None
454,31.891,0.3358306884765625,-0.199310302734375,-0.792938232421875,-0.6337333130073245,-0.9633380805479976,None
455,31.941,0.45880126953125,-0.105316162109375,-1.002777099609375,-0.5892611644840587,-0.9732868643606658,None
456,31.99,0.8881378173828125,0.2415618896484375,-1.423065185546875,-0.4674005052248636,-0.9813613913729033,None
457,32.04,1.11163330078125,0.1993255615234375,-1.2715606689453125,-0.4035416644550047,-0.9761352726423916,None
458,32.09,1.2722625732421875,-0.1460723876953125,-1.5974884033203125,-0.3644515407985019,-0.9437963537985673,None
459,32.379,-2.40155029296875,-0.303680419921875,0.2097930908203125,-0.386392386742129,-0.9187514226279929,None
460,32.469,0.805633544921875,-0.4152374267578125,-2.0797882080078125,-0.354442125522388,-0.9241198607267546,UpperCut
461,32.519,0.6822509765625,-0.654083251953125,-1.0208587646484375,-0.37693832895527046,-0.9291370491034583,None
462,32.569,0.63116455078125,-0.6856689453125,-1.514190673828125,-0.3327902140456949,-0.9448166625516914,None
463,32.638,0.676513671875,-0.3879241943359375,-1.979949951171875,-0.30972636218561805,-0.9695283352219777,None
464,32.688,0.4489288330078125,-0.575103759765625,-1.1224822998046875,-0.3221559369445635,-0.9754701228221287,None
465,32.738,0.4927520751953125,-0.2122344970703125,-1.472900390625,-0.2621946137544432,-0.9909563286414127,None
466,32.788,0.5233612060546875,-0.18927001953125,-1.39105224609375,-0.19608289356599157,-0.9981293342170353,None
467,32.838,0.0343475341796875,-0.287384033203125,-1.8015289306640625,-0.23978746313095842,-0.9999831492602274,None
468,32.888,0.56817626953125,-0.2094573974609375,-0.378448486328125,-0.2904593409431481,-0.9984166779428286,None
469,32.937,0.6317291259765625,-0.1791534423828125,0.2097625732421875,-0.2925599406443425,-0.9981956383313284,None
470,32.987,0.8243408203125,-0.1578826904296875,-0.4340057373046875,-0.23396830481308864,-0.9949891727769317,None
471,33.037,1.0979156494140625,-0.636322021484375,-0.8973541259765625,-0.15518625217940502,-0.9975557521056789,None
472,33.406,-2.167999267578125,-0.1041107177734375,0.294952392578125,-0.02803952708945029,-0.9948971340785644,None
473,33.506,0.97637939453125,-0.3497467041015625,-1.97357177734375,-0.011607455827791704,-0.9919987660122249,UpperCut
474,33.555,0.88397216796875,-0.649444580078125,-1.10986328125,0.002508033155519755,-0.9827610278876638,None
475,33.605,0.8022918701171875,-0.4201507568359375,-1.62176513671875,0.0842454733364738,-0.957414418790045,None
476,33.655,0.8946685791015625,-0.4398040771484375,-1.9130859375,0.10135577373344987,-0.9312058822884839,None
477,33.705,0.5054779052734375,-0.4272613525390625,-1.411651611328125,0.1396721723546252,-0.8966578343766497,None
478,33.755,0.6148834228515625,-0.0213165283203125,-1.9417877197265625,0.22165953251540013,-0.857030872666174,None
479,33.805,0.4610137939453125,-0.0986480712890625,-1.1783447265625,0.19986771999953967,-0.8313631531266745,None
480,33.854,0.246124267578125,-0.0507965087890625,-0.840606689453125,0.16548797327643233,-0.8126236235499504,None
481,33.904,0.14093017578125,-0.1150970458984375,-0.6436614990234375,0.14814979763273217,-0.7979978452362587,None
482,33.954,0.2276763916015625,0.0005340576171875,-0.7133331298828125,0.18274577028926137,-0.7833291262987622,None
483,34.004,0.380218505859375,-0.0057220458984375,-0.74615478515625,0.2378494178195851,-0.7918983190380882,None
484,34.054,1.622650146484375,-0.1636962890625,-1.2288818359375,0.2909769649347987,-0.8110138060922738,None
485,34.383,-2.152313232421875,-0.3915863037109375,0.5773773193359375,0.23837968084148944,-0.8693876893172738,None
486,34.453,0.6762847900390625,0.0511474609375,-2.04327392578125,0.2522535239900666,-0.8480031612234405,None
487,34.502,0.849212646484375,-0.52557373046875,-1.614410400390625,0.28337206307751095,-0.8418894646781057,UpperCut
488,34.552,0.8363037109375,-0.7283172607421875,-1.3138580322265625,0.29819817866996845,-0.809106363191862,None
489,34.602,0.853790283203125,-0.3843536376953125,-1.7720794677734375,0.3388912825753195,-0.7422822147392286,None
490,34.652,0.9058380126953125,-0.289459228515625,-1.6952362060546875,0.39104472398660395,-0.6723572208039371,None
491,34.702,0.76751708984375,-0.2282562255859375,-1.442657470703125,0.36141280936391973,-0.6223671712501407,None
492,34.752,0.583160400390625,-0.2200775146484375,-1.088958740234375,0.3013971355044928,-0.5866648798994664,None
493,34.801,0.2439727783203125,-0.2787017822265625,-1.2223052978515625,0.26951066091729037,-0.5555756283207411,None
494,34.851,0.146728515625,-0.1719207763671875,-1.045654296875,0.25512259715955365,-0.5203183830268974,None
495,34.901,0.125640869140625,-0.159149169921875,-0.8134765625,0.2544345222482709,-0.4878589183181958,None
496,34.951,0.1027374267578125,-0.118377685546875,-0.6268310546875,0.2793511503876893,-0.4657036230815181,None
497,35.001,0.1356201171875,-0.064910888671875,-0.70367431640625,0.33247785030295796,-0.4484551463175838,None
498,35.051,0.211578369140625,-0.2378997802734375,-0.711761474609375,0.35671585993546645,-0.4567959839532761,None
499,35.101,0.980804443359375,-0.102020263671875,-1.017974853515625,0.49407195324232467,-0.46835337888918854,None
500,35.15,1.8348236083984375,0.25238037109375,-1.765625,0.5148216531551973,-0.521568748324923,None
501,35.2,1.7720947265625,-0.1354217529296875,-1.8170928955078125,0.4580696340580584,-0.6738123848244755,None
502,35.479,-2.3125457763671875,-0.18133544921875,0.9953155517578125,0.4899359593706734,-0.7016392090809551,None
503,35.529,0.2995452880859375,-0.2930908203125,-1.415374755859375,0.612049378631558,-0.6966063233014816,None
504,35.599,0.86578369140625,-0.1702728271484375,-2.0658416748046875,0.6309232792273569,-0.643922097597552,UpperCut
505,35.649,1.0317535400390625,-0.6074371337890625,-1.319671630859375,0.6594584580223236,-0.6138082375951682,None
506,35.709,0.9621124267578125,-0.087982177734375,-2.1666412353515625,0.66590939494677,-0.5499181610913056,None
507,35.758,0.5537872314453125,-0.6183929443359375,-1.3151397705078125,0.6030223377176874,-0.5482304269909944,None
508,35.808,0.540008544921875,-0.3347015380859375,-1.2816009521484375,0.6114530356403469,-0.5125049155009358,None
509,35.858,0.4592132568359375,-0.212188720703125,-1.445770263671875,0.5975610885425072,-0.4692795166437778,None
510,35.908,0.3240509033203125,-0.320465087890625,-1.2977294921875,0.585711563634371,-0.42410912295010983,None
511,35.958,0.5720977783203125,-0.0939788818359375,-1.285400390625,0.5795757372381595,-0.3588110706494937,None
512,36.008,0.5241241455078125,-0.3080902099609375,-0.966522216796875,0.5037790047603761,-0.33375641896106334,None
513,36.058,0.278350830078125,-0.33990478515625,-0.50677490234375,-0.8304928212927931,-0.41501689689393867,None
514,36.107,0.0650634765625,-0.393798828125,-0.2530517578125,-0.5405994184302062,-0.13767282048055632,None
515,36.157,0.0372314453125,-0.221343994140625,-0.2870941162109375,-0.7919538004463526,-0.10216613719207915,None
516,36.207,0.18695068359375,-0.2086181640625,-0.604217529296875,-0.8416658222411608,-0.10925774739541821,None
517,36.257,0.7637176513671875,-0.2142181396484375,-1.1162109375,-0.9099205137232463,-0.10092327942714999,None
518,36.307,1.875335693359375,-0.36553955078125,-1.546142578125,-0.9687457748553379,-0.06830483762031275,None
519,36.634,-2.233612060546875,0.2344970703125,1.061431884765625,-0.9910319074135182,-0.05582855572511726,None
520,36.684,0.1153717041015625,-0.1602783203125,-1.7632904052734375,-0.9754971891020012,0.049615473411447945,None
521,36.765,0.641571044921875,-1.130584716796875,-1.9375152587890625,-0.9594139372620866,0.08401740939206759,UpperCut
522,36.815,0.6996002197265625,-1.7767333984375,-0.9034881591796875,-0.8904955922141942,0.13839300075698585,None
523,36.865,0.6976165771484375,-1.735198974609375,-1.1519927978515625,-0.821781500361996,0.15853427834784123,None
524,36.915,0.669952392578125,-1.545166015625,-0.5484771728515625,-0.7240717497364476,0.18028898524794312,None
525,36.965,0.69781494140625,-1.130584716796875,-0.38818359375,-0.5750847072591033,0.16643030104353718,None
526,37.014,0.6006011962890625,-0.991790771484375,-0.180938720703125,-0.41876791534564745,0.1587136980032473,None
527,37.064,0.6189117431640625,-0.64117431640625,0.121490478515625,0.18616865176194766,-0.6881402489093144,None
528,37.114,0.2529144287109375,-0.5835113525390625,0.1752471923828125,0.2876396787695732,-0.38339613686322327,None
529,37.164,0.447235107421875,-0.422119140625,0.1790008544921875,0.39040198753903543,-0.6982551990410154,None
530,37.214,0.6187744140625,-0.5452117919921875,-0.028350830078125,-0.05192950377075213,-0.7498552978316136,None
531,37.264,0.6107177734375,-0.885406494140625,-0.1362152099609375,-0.1520559042979246,-0.5632922539080739,None
532,37.314,0.59906005859375,-0.9326324462890625,-0.1394195556640625,-0.17733252337084032,-0.5728017929085903,None
533,37.363,0.3520965576171875,-0.9316864013671875,-0.1942291259765625,-0.20408294248232603,-0.3469754340629606,None
534,37.413,0.7303009033203125,-0.715606689453125,-0.043060302734375,-0.06006449898782634,-0.7136233934645744,None
535,37.463,0.157440185546875,-1.0048675537109375,-0.2366485595703125,-0.22923128235498985,-0.1507624026761323,None
536,37.513,0.2189483642578125,-1.1284332275390625,-0.278106689453125,-0.250288515703032,-0.1410573722649895,None
537,37.563,0.0697479248046875,-1.3015594482421875,-0.331756591796875,-0.22760187877314694,-0.14020183053482557,None
538,37.613,0.2724456787109375,-1.1008758544921875,0.229461669921875,-0.12324760500332979,-0.1722930880523324,None
539,37.662,0.3589630126953125,-0.761383056640625,0.6027984619140625,0.6207262866091877,-0.34671097138722107,None
540,37.712,0.4196014404296875,-0.49554443359375,0.78155517578125,0.6577516332644829,-0.37616503320368305,None
541,37.762,0.1878662109375,-0.775604248046875,0.4575347900390625,0.508089784636323,-0.20422728804550577,None
542,37.812,0.1001129150390625,-1.0123138427734375,0.36077880859375,0.3357076079884841,-0.0927542872391929,None
543,37.862,0.2031402587890625,-0.7962493896484375,0.1432342529296875,0.17704448117648758,-0.24353159679701786,None
544,37.912,0.37579345703125,-0.281768798828125,0.5171051025390625,0.21640880450339645,-0.21541615063708047,None
545,37.961,0.1694793701171875,-0.0401611328125,0.2648468017578125,0.15467248804435135,-0.14495709786990035,None
546,38.011,-0.209930419921875,-0.1141815185546875,0.0606689453125,-0.05572492353677222,-0.01208814185745568,None
547,38.061,-0.0698394775390625,-0.12261962890625,-0.3480072021484375,-0.31961638373508017,0.10188685080240367,None
548,38.111,0.0455474853515625,-0.178558349609375,-0.503448486328125,-0.6244173059504928,0.20250306015296976,None
549,38.161,0.7342071533203125,-0.083099365234375,-1.47845458984375,-0.876184341638405,0.2148961338910784,None
550,38.53,-2.611602783203125,0.12249755859375,1.51556396484375,-0.8971374372985035,0.28395726698693885,None
551,38.58,0.1522979736328125,-0.472747802734375,-0.7779693603515625,-0.8545880161262489,-0.16500394962266013,UpperCut
552,38.629,0.3301239013671875,-0.9458770751953125,-1.193695068359375,-0.8662516516610818,-0.14018218208446537,None
553,38.679,0.5575714111328125,-0.8110504150390625,-0.7091827392578125,-0.854803758831502,-0.11248126285917635,None
554,38.729,0.7744598388671875,-0.8967132568359375,-1.2323455810546875,-0.830941838298331,-0.060792191418519374,None
555,38.779,0.6757354736328125,-1.4395751953125,-0.68487548828125,-0.806479871857327,-0.014023156906730385,None
556,38.829,0.514129638671875,-1.1011810302734375,-1.500396728515625,-0.8066528885638686,-0.04198067191816566,None
557,38.879,0.664886474609375,-0.9822235107421875,-1.0598602294921875,-0.6499936983782,-0.010785310613217929,None
558,38.928,0.380645751953125,-1.238922119140625,-0.740478515625,-0.4609681481223643,0.0014215177561320515,None
559,38.978,0.3076324462890625,-1.3052825927734375,-0.843414306640625,-0.2522211224936209,0.026722269931776118,None
560,39.028,0.1927490234375,-1.4401702880859375,0.032928466796875,-0.10966129543984955,0.002355061885752731,None
561,39.078,0.2639923095703125,-1.065460205078125,-0.18682861328125,-0.01952041442937928,-0.06320143338912652,None
562,39.128,0.29058837890625,-0.784698486328125,0.018463134765625,0.023522443976456354,-0.3471870906793985,None
563,39.178,0.2363433837890625,-0.6346282958984375,0.1491241455078125,0.22874839644522768,-0.3408309022213511,None
564,39.227,0.4370880126953125,-0.289093017578125,0.1985321044921875,0.5661040380747466,-0.7799726689265777,None
565,39.277,0.639190673828125,-0.093414306640625,0.1945953369140625,0.5583573588422333,-0.8365468611815893,None
566,39.327,0.9109039306640625,-0.2469482421875,0.195556640625,0.5288154709227698,-0.8608133816861073,None
567,39.377,0.6455841064453125,-0.71484375,0.2303314208984375,0.3066851779905123,-0.6518614492812297,None
568,39.427,0.2354888916015625,-1.0644989013671875,0.2645111083984375,0.31073521748488386,-0.6381422935980188,None
569,39.477,0.0775299072265625,-1.133697509765625,0.5076751708984375,0.32254745912820304,-0.6471244045732698,None
570,39.527,0.1266632080078125,-1.06365966796875,0.683929443359375,0.32830764664449236,-0.6622385175820951,None
571,39.576,0.14276123046875,-0.9693145751953125,0.875030517578125,0.34784112016911606,-0.6818247132114643,None
572,39.626,0.0660400390625,-0.9180908203125,1.019439697265625,0.369546205529454,-0.6895912231300974,None
573,39.676,-0.0042724609375,-0.6992034912109375,1.00946044921875,0.3816587168564858,-0.6972989590465092,None
574,39.726,-0.021331787109375,-0.569610595703125,0.6477203369140625,0.7509338616569741,0.024723424437174447,None
575,39.776,0.0518646240234375,-0.4742431640625,0.4873809814453125,0.7167004695312501,-0.0760467944220814,None
576,39.826,0.0615081787109375,-0.4765167236328125,0.0086822509765625,0.018217220403146436,-0.12799578695610886,None
577,39.875,0.2406158447265625,-0.32757568359375,0.0006561279296875,0.0020029771633908997,-0.591992564302041,None
578,39.925,0.0443267822265625,-0.393035888671875,-0.4397735595703125,-0.7456167171297713,-0.07494276297297509,None
579,39.975,0.2416534423828125,-0.141815185546875,-0.381195068359375,-0.8898553664191594,0.029454616416791028,None
580,40.025,0.0494537353515625,-0.2533721923828125,-0.477081298828125,-0.9938558152327781,0.09840771060508693,None
581,40.075,0.961273193359375,-0.3197784423828125,-0.8761444091796875,-0.9598432306550138,0.1277055826379802,None
582,40.444,-2.3620147705078125,0.14990234375,1.9051361083984375,-0.9589006688740594,0.23398540168302553,None
583,40.493,0.170166015625,-0.745086669921875,-0.8525848388671875,-0.902204991869891,0.31675393631300675,None
584,40.543,0.6311187744140625,-1.3529205322265625,-1.4686279296875,-0.9148403663233485,0.37318652720918366,UpperCut
585,40.593,0.688568115234375,-1.5197601318359375,-0.480987548828125,-0.9438432675412445,0.4228422720872111,None
586,40.643,0.9422760009765625,-1.28997802734375,-0.571533203125,-0.9567637726747634,0.4394259829363607,None
587,40.693,0.762603759765625,-0.9484100341796875,-0.712615966796875,-0.9523172228180171,0.4355692522434423,None
588,40.743,0.738861083984375,-0.7886199951171875,-0.6605987548828125,-0.9631071947535912,0.44343690615913295,None
589,40.793,0.657867431640625,-0.8935699462890625,-1.3504638671875,-0.9940053121406608,0.45211947186885265,None
590,40.842,0.52899169921875,-1.145416259765625,-0.6844482421875,-0.9909220622939533,0.4751956718615285,None
591,40.892,0.462158203125,-1.1614532470703125,-0.6252899169921875,-0.9481187264622964,0.4675432249515126,None
592,40.942,0.37396240234375,-1.0984344482421875,-0.53558349609375,-0.8721528977189942,0.43600105522429417,None
593,40.992,0.66888427734375,-0.7595062255859375,-0.09844970703125,-0.12854786001239762,-0.6578116959545077,None
594,41.042,0.7733612060546875,-0.489532470703125,-0.0764007568359375,-0.15420213468151156,-0.8420205225599874,None
595,41.092,0.50921630859375,-0.50396728515625,0.1275177001953125,0.24529721156793347,-0.6997628029392738,None
596,41.141,0.5308837890625,-0.3599853515625,0.2036895751953125,0.4924595710197793,-0.7888426723763724,None
597,41.191,0.4290771484375,-0.5285186767578125,0.2240142822265625,0.3902460494246524,-0.5987061928739597,None
598,41.241,0.38653564453125,-0.6751251220703125,0.217926025390625,0.3071862766979795,-0.47844744935249056,None
599,41.291,0.1618194580078125,-0.992645263671875,0.3975372314453125,0.37177691898433674,-0.14962989585452866,None
600,41.341,0.1507415771484375,-1.0992584228515625,0.624114990234375,0.36366825203554753,-0.1415877480845198,None
601,41.391,0.0519561767578125,-1.15667724609375,1.12158203125,0.3960164436484103,-0.1343133613429737,None
602,41.44,0.0151519775390625,-1.03863525390625,1.1884918212890625,0.4150719890679448,-0.14081328247878275,None
603,41.49,0.0636749267578125,-0.9119720458984375,0.931915283203125,0.4335674224602917,-0.15660222256879766,None
604,41.54,-0.0663909912109375,-0.8427886962890625,0.7688140869140625,0.48859427107168646,-0.14143974339217524,None
605,41.59,-0.031646728515625,-0.7041015625,0.431854248046875,0.5228332070974309,0.038285670960687176,None
606,41.64,0.03875732421875,-0.62921142578125,0.212860107421875,0.32045601820710257,-0.05824919322776064,None
607,41.69,0.0574188232421875,-0.577789306640625,0.070068359375,0.12038773946741511,-0.09817737320417394,None
608,41.74,0.28033447265625,-0.402008056640625,0.044189453125,0.10926368592369129,-0.5696836163254708,None
609,41.789,0.2549591064453125,-0.323455810546875,-0.0512847900390625,-0.15659657380549039,-0.6143005547510181,None
610,41.839,0.4642333984375,-0.160736083984375,-0.3188629150390625,-0.33488839905408063,-0.49670121748399104,None
611,41.889,0.3198394775390625,-0.1745452880859375,-0.4465789794921875,-0.5486120506085864,-0.37704993625589084,None
612,41.939,0.3147430419921875,-0.1981658935546875,-0.6693572998046875,-0.8050411085073373,-0.3048524055117413,None
613,41.989,1.0209808349609375,-0.1377105712890625,-1.321380615234375,-0.985119301223236,-0.2772969247482609,None
614,42.358,-1.9713287353515625,0.0562744140625,0.815460205078125,-0.9988808026250297,-0.22818395747713363,None
615,42.407,-0.2670135498046875,-0.8582305908203125,-1.2284088134765625,-0.9994558341307799,-0.15724701752461123,UpperCut
616,42.457,0.9433441162109375,-0.573822021484375,-1.6863250732421875,-0.9891781424182855,-0.20516205423694825,None
617,42.507,1.1311187744140625,-0.9107666015625,-1.6444854736328125,-0.9815656319796674,-0.24737055988344347,None
618,42.557,1.0364837646484375,-1.1563262939453125,-1.205291748046875,-0.9980080891065384,-0.24606010108511614,None
619,42.607,1.029815673828125,-1.086212158203125,-1.146820068359375,-0.9997722890544126,-0.2149193909523641,None
620,42.657,1.0469207763671875,-0.85089111328125,-1.4435272216796875,-0.9970012273106779,-0.20522882042708623,None
621,42.706,0.6954803466796875,-0.8955078125,-1.119110107421875,-0.974498935488712,-0.17388326530691994,None
622,42.756,0.3741302490234375,-0.8380126953125,-0.612030029296875,-0.8845909127615547,-0.170798630746646,None
623,42.806,0.3819732666015625,-0.80401611328125,-0.5539398193359375,-0.5673483358515906,-0.3643305875028761,None
624,42.856,0.289764404296875,-0.85028076171875,-0.552001953125,-0.544516339298929,-0.2748283912671473,None
625,42.906,0.492919921875,-0.6883697509765625,-0.170654296875,-0.24062662592242157,-0.5707195100788012,None
626,42.956,0.33648681640625,-0.7565155029296875,-0.0788726806640625,-0.10369580319038188,-0.40456688851011524,None
627,43.006,0.2284393310546875,-0.7440948486328125,-0.024627685546875,-0.03307939508805778,-0.29333701265861495,None
628,43.055,-0.059478759765625,-0.8019561767578125,0.275543212890625,0.3249434789110947,0.06997038756887433,None
629,43.105,-0.0028533935546875,-0.701416015625,0.6588592529296875,0.6846496815699609,0.002965073940022894,None
630,43.155,0.1447906494140625,-0.550506591796875,1.0598907470703125,0.7427414055929326,-0.06444503863088102,None
631,43.205,0.1627960205078125,-0.5364227294921875,1.1060333251953125,0.7363873061485184,-0.11871015593768248,None
632,43.255,0.088958740234375,-0.6635589599609375,1.0915985107421875,0.7216468471073693,-0.13981029098360134,None
633,43.305,-0.0301361083984375,-0.7743682861328125,0.9186859130859375,0.721077243021284,-0.13103598743043565,None
634,43.354,0.0567169189453125,-0.739349365234375,0.66082763671875,0.6664052495945743,-0.057102305011393927,None
635,43.404,0.0705718994140625,-0.659759521484375,0.5453338623046875,0.6371002462808939,-0.08216862741860975,None
636,43.454,0.14794921875,-0.573699951171875,0.2648468017578125,0.41913933711087276,-0.22797479387758998,None
637,43.504,0.130584716796875,-0.54345703125,0.120513916015625,0.21649507903403697,-0.2283865892495678,None
638,43.554,0.1834716796875,-0.6358184814453125,-0.0556182861328125,-0.08714233482798586,-0.27627380005966173,None
639,43.604,0.0388946533203125,-0.817901611328125,-0.2901458740234375,-0.3343307553572647,-0.04477278447446099,None
640,43.653,0.1540374755859375,-0.76226806640625,-0.2801971435546875,-0.34501306924430925,-0.18634754401745912,None
641,43.703,0.0555877685546875,-0.694793701171875,-0.0419769287109375,-0.060306428932899114,-0.07960707919325816,None
642,43.753,0.276611328125,-0.3329925537109375,-0.085845947265625,-0.24963913637691837,-0.6267752442728668,None
643,43.803,0.33648681640625,-0.0828399658203125,-0.2027130126953125,-0.5182647228947586,-0.57359650603426,None
644,43.853,0.672149658203125,-0.0619964599609375,-1.2048797607421875,-0.8267337212907634,-0.5374467079764441,None
645,44.26,-2.5260772705078125,-0.703155517578125,2.097198486328125,-0.928376198574072,-0.5484785159383873,None
646,44.361,0.4289703369140625,-0.843994140625,-2.0148773193359375,-0.9110740312320194,-0.5401740053137064,UpperCut
647,44.411,0.7229461669921875,-0.8988800048828125,-1.0823974609375,-0.881967866901007,-0.5010072325810067,None
648,44.461,0.7230377197265625,-0.9734954833984375,-0.9096527099609375,-0.9043462960056154,-0.48872153754521164,None
649,44.511,0.7160797119140625,-0.702301025390625,-1.30987548828125,-0.904006513910758,-0.5228594596036946,None
650,44.561,1.0169677734375,-0.528045654296875,-1.3876800537109375,-0.870540128135535,-0.5175632402300535,None
651,44.61,0.7501678466796875,-0.82879638671875,-1.028045654296875,-0.7892452316730746,-0.5131470409845648,None
652,44.66,0.4683685302734375,-0.7891387939453125,-0.9136199951171875,-0.7305108788636413,-0.5249846225640336,None
653,44.71,0.2742767333984375,-0.75030517578125,-0.94781494140625,-0.6785858741913794,-0.5697484425343218,None
654,44.76,0.4843597412109375,-0.6747894287109375,-0.7420501708984375,-0.6096991625687044,-0.6101106828542909,None
655,44.81,0.4708099365234375,-0.8145294189453125,-1.0651092529296875,-0.4344893301964999,-0.6406570803845422,None
656,44.86,0.350128173828125,-0.9110260009765625,-1.0220794677734375,-0.16513491009485917,-0.6560986497658593,None
657,44.91,0.2418365478515625,-0.704193115234375,-0.1128082275390625,-0.1581782528416884,-0.3211387142206468,None
658,44.959,0.2131805419921875,-0.4889984130859375,0.4076690673828125,0.6403423365381016,-0.3175229618888248,None
659,45.009,0.1850433349609375,-0.487701416015625,0.45343017578125,0.6809062305593292,-0.26773131796283567,None
660,45.059,0.087677001953125,-0.475494384765625,0.6498565673828125,0.8070364927999218,-0.10824356495141982,None
661,45.109,-0.027923583984375,-0.495849609375,0.62384033203125,0.78283760380669,0.035018934857939533,None
662,45.159,-0.17279052734375,-0.5803375244140625,0.9078826904296875,0.8425693454842716,0.15833700668425993,None
663,45.209,-0.2557830810546875,-0.628570556640625,1.1826171875,0.827878584836993,0.1339792797648762,None
664,45.258,-0.2984619140625,-0.714935302734375,1.3138885498046875,0.8054100601705257,0.12591988598022144,None
665,45.308,-0.3485870361328125,-0.885589599609375,1.0675506591796875,0.79530631347368,0.12574803758164235,None
666,45.358,-0.2503662109375,-0.889678955078125,0.7824859619140625,0.7776662804780242,0.14457602626039862,None
667,45.408,-0.071136474609375,-0.816619873046875,0.429107666015625,0.4651586853736698,0.07688467422694187,None
668,45.458,0.0010833740234375,-0.73004150390625,0.1949615478515625,0.25801329794118405,-0.001433742296740087,None
669,45.508,0.14739990234375,-0.702056884765625,0.0149078369140625,0.02122972848439392,-0.20543009789854066,None
670,45.557,0.2464599609375,-0.6181488037109375,-0.1233062744140625,-0.19562264509283228,-0.36415611898018324,None
671,45.607,0.3028106689453125,-0.5708465576171875,0.004730224609375,0.00828604842785706,-0.4685975827239677,None
672,45.657,0.2803192138671875,-0.4403076171875,-0.0291900634765625,-0.0661495009806319,-0.5362060190191467,None
673,45.707,0.2552337646484375,-0.3297271728515625,0.061859130859375,0.1843901425065231,-0.6054880997340168,None
674,45.757,0.06683349609375,-0.5428314208984375,-0.208343505859375,-0.35832304886799216,-0.11419280301206576,None
675,45.807,0.41766357421875,-0.45062255859375,-0.2799072265625,-0.5276492386243297,-0.6186070364015223,None
676,45.857,1.1674652099609375,-0.7945556640625,-1.006378173828125,-0.7518262799986486,-0.6720568413371786,None
677,45.906,1.8159332275390625,-0.6115570068359375,-1.286346435546875,-0.8930191213044719,-0.6853984340819729,None
678,46.225,-2.0959320068359375,-0.2584686279296875,0.962738037109375,-0.9047424908465481,-0.6555786125012315,None
679,46.275,0.1469573974609375,-0.8656005859375,-1.564849853515625,-0.9608810611032695,-0.6551320102514971,UpperCut
680,46.325,0.89923095703125,-0.97808837890625,-1.1190338134765625,-0.965146232305534,-0.6732195730280952,None
681,46.375,1.0484771728515625,-0.9107208251953125,-0.807373046875,-0.9406242355628244,-0.6638476096881383,None
682,46.425,1.211578369140625,-0.976043701171875,-0.7913818359375,-0.9207931812276101,-0.650840736470966,None
683,46.475,1.01751708984375,-0.892242431640625,-0.5987396240234375,-0.8876455738691162,-0.608108017967572,None
684,46.524,0.944580078125,-0.8355865478515625,-0.68670654296875,-0.8106895748178482,-0.5664365206802496,None
685,46.574,0.961700439453125,-0.94342041015625,-0.656402587890625,-0.7393076938292105,-0.5140357857627964,None
686,46.624,0.8249664306640625,-0.96453857421875,-0.6908416748046875,-0.6094502699551083,-0.48997115923738066,None
687,46.674,0.62762451171875,-0.8950042724609375,-0.6121673583984375,-0.4651375191579736,-0.498975549565373,None
688,46.724,0.384857177734375,-0.879119873046875,-0.455322265625,-0.4599050298253735,-0.36231820153478855,None
689,46.774,0.592010498046875,-0.5087738037109375,-0.2293701171875,-0.4109932574029538,-0.7276470886384938,None
690,46.823,0.5345306396484375,-0.4168243408203125,0.158721923828125,0.3558615966568765,-0.7678118818970955,None
691,46.873,0.4330291748046875,-0.407989501953125,0.3995361328125,0.699666285276739,-0.6042339846787022,None
692,46.923,0.38958740234375,-0.4174346923828125,0.553619384765625,0.7984604016784894,-0.48985351946728756,None
693,46.973,0.2857208251953125,-0.579925537109375,0.569610595703125,0.7007336075417006,-0.3316050121998804,None
694,47.023,0.1846771240234375,-0.7911376953125,0.7528076171875,0.6898180392305049,-0.31304703995415184,None
695,47.073,0.0238189697265625,-0.9655303955078125,0.7793121337890625,0.6917649051059408,-0.2848892327846396,None
696,47.123,-0.0421295166015625,-1.064727783203125,0.9429168701171875,0.7025949807918769,-0.2613125198795813,None
697,47.172,-0.014862060546875,-1.0587158203125,0.9869384765625,0.7171574454400923,-0.24477194771903724,None
698,47.222,-0.104034423828125,-1.0879058837890625,1.0041046142578125,0.7320717514284315,-0.22683737091801415,None
699,47.272,-0.1139984130859375,-0.9639739990234375,0.6433868408203125,0.7513986618322117,-0.2158845990204481,None
700,47.322,-0.0146636962890625,-0.750762939453125,0.351531982421875,0.4240499680588666,0.017685922436855545,None
701,47.372,0.036834716796875,-0.5734100341796875,0.1329193115234375,0.22581739302093423,-0.06245654164505876,None
702,47.422,0.1812896728515625,-0.3203125,0.0687255859375,0.20978355200121424,-0.48418988236824706,None
703,47.471,0.2264556884765625,-0.0736083984375,0.1453399658203125,0.13488546376524216,-0.4137139866756549,None
704,47.521,0.21136474609375,-0.005584716796875,-0.2961578369140625,-0.05330690871165446,-0.2925705856911614,None
705,47.571,-0.094512939453125,-0.2788238525390625,-0.624908447265625,-0.2627651099115437,-0.13431158308877597,None
706,47.621,0.0666046142578125,-0.4628448486328125,-0.546478271484375,-0.7630831299264724,-0.09260470779948975,None
707,47.671,0.9949798583984375,-0.401580810546875,-1.07489013671875,-0.9565220083466597,-0.041472665787346485,None
708,47.721,1.241790771484375,-0.48870849609375,-1.3678131103515625,-0.9999912828219001,-0.011476812284724754,None
709,48.07,-2.2568511962890625,-0.1607666015625,1.059326171875,-0.9958531076550684,0.024105279932877175,None
710,48.119,-0.004974365234375,-1.072723388671875,-0.8334503173828125,-0.9682618621804179,0.04221380354433809,None
711,48.169,0.961334228515625,-0.7433929443359375,-1.6670989990234375,-0.9490358682163204,-0.06270772617583388,UpperCut
712,48.219,1.27349853515625,-0.6958465576171875,-1.306915283203125,-0.9486633576580127,-0.15133089537672811,None
713,48.269,1.4218597412109375,-0.5509185791015625,-1.0147705078125,-0.9685980597143617,-0.21611940522138237,None
714,48.319,1.0143890380859375,-0.4401397705078125,-1.1035308837890625,-0.9870203336711361,-0.25857779232897277,None
715,48.369,0.8281097412109375,-0.475616455078125,-1.4312286376953125,-0.9935585844690309,-0.2607102731091957,None
716,48.418,0.4855804443359375,-0.697296142578125,-1.1725311279296875,-0.9999739842270564,-0.2544220484338474,None
717,48.468,0.484466552734375,-0.5223846435546875,-1.150054931640625,-0.9930322813734358,-0.2734682466789743,None
718,48.518,0.25408935546875,-0.565643310546875,-0.9752349853515625,-0.9742214755700571,-0.2943186758233193,None
719,48.568,0.3825225830078125,-0.5438690185546875,-0.745361328125,-0.8078132938958893,-0.3829669781210519,None
720,48.618,0.4183349609375,-0.6422271728515625,-0.7408447265625,-0.7556074312113996,-0.39244210406585445,None
721,48.668,0.3289947509765625,-0.9002685546875,-0.9428558349609375,-0.6301397365133306,-0.4385845756178835,None
722,48.717,0.3771209716796875,-0.8798980712890625,-0.52880859375,-0.5151185862088591,-0.3448265396059001,None
723,48.767,0.26788330078125,-0.8022308349609375,-0.17724609375,-0.21573859477307825,-0.3099969764390915,None
724,48.817,0.296966552734375,-0.7271881103515625,0.10333251953125,0.1406854814115797,-0.374836692503265,None
725,48.867,0.32171630859375,-0.8052520751953125,0.1679840087890625,0.20421425213618602,-0.364236753024032,None
726,48.917,0.2378997802734375,-0.816436767578125,0.0908203125,0.11055792524875048,-0.27817142563591596,None
727,48.967,0.0619049072265625,-0.810272216796875,0.314544677734375,0.36188536659847015,-0.07104197869847655,None
728,49.017,0.042327880859375,-0.69097900390625,0.478057861328125,0.5689587605139774,-0.05031256713041449,None
729,49.066,0.0200347900390625,-0.7132568359375,0.68939208984375,0.6949754446608378,-0.02019293274243621,None
730,49.116,-0.033966064453125,-0.7532806396484375,0.7802276611328125,0.7194210971689731,0.03130359135613928,None
731,49.166,-0.0042877197265625,-0.8620452880859375,1.1301727294921875,0.7243119622224152,0.022420524263624148,None
732,49.216,-0.1374969482421875,-1.00494384765625,1.1435394287109375,0.7237944617114217,0.030314137692897484,None
733,49.266,-0.126983642578125,-0.9716033935546875,0.9458770751953125,0.7171176723694899,0.0365986237258252,None
734,49.316,-0.1236724853515625,-0.870849609375,0.4792022705078125,0.48210024148532965,0.12346839151903685,None
735,49.365,0.0452880859375,-0.6422119140625,0.15936279296875,0.24084235436860532,-0.06828338693023805,None
736,49.415,0.12384033203125,-0.437591552734375,0.0427703857421875,0.09727688033793037,-0.2711132398423111,None
737,49.465,0.15936279296875,-0.3925933837890625,-0.24517822265625,-0.5296996190715547,-0.32554325659185696,None
738,49.515,0.0207061767578125,-0.5650177001953125,-0.2075958251953125,-0.3448735276030724,-0.034378297842538305,None
739,49.565,0.087982177734375,-0.4723663330078125,-0.1115264892578125,-0.22978399838002636,-0.1783674665233904,None
740,49.615,0.1964569091796875,-0.2654571533203125,-0.4407958984375,-0.4926318045280033,-0.08581200595545864,None
741,49.664,0.3208160400390625,-0.060516357421875,-0.5887908935546875,-0.7269469835449862,-0.03535503752046048,None
742,49.714,0.6227569580078125,-0.3564300537109375,-1.0618743896484375,-0.8424447146624718,0.0239853657803086,None
743,49.764,0.8148193359375,-0.6836090087890625,-1.452301025390625,-0.9626643535252228,0.13308602207901218,None
744,50.142,-2.1028289794921875,-0.0270843505859375,0.6286468505859375,-0.989696177474467,0.1688720641620043,None
745,50.192,0.760986328125,-0.705780029296875,-2.201324462890625,-0.9999996983202083,0.10925498854393398,UpperCut
746,50.253,1.434356689453125,-0.9167327880859375,-2.176605224609375,-0.9998038439229451,0.08460796835562644,None
747,50.302,1.49871826171875,-0.7974090576171875,-1.254364013671875,-0.999592691726415,0.06853327366938146,None
748,50.352,1.2106781005859375,-0.6595916748046875,-1.1949310302734375,-0.9903336535539209,0.1023134006206815,None
749,50.402,0.672576904296875,-0.9819488525390625,-1.0343017578125,-0.9164680127139264,0.17507450217386888,None
750,50.452,0.4962310791015625,-1.05645751953125,-0.796295166015625,-0.7886641069110132,0.25050463318532384,None
751,50.502,0.3410491943359375,-1.0177764892578125,-0.40936279296875,-0.6417256015613616,0.26553033392600633,None
752,50.552,0.3241424560546875,-0.83319091796875,-0.3296966552734375,-0.36794416644308064,-0.3401722605111184,None
753,50.601,0.1345672607421875,-0.9168243408203125,-0.4656829833984375,-0.4528611505303787,-0.1297558551891572,None
754,50.651,0.4322509765625,-0.915679931640625,-0.27825927734375,-0.2907542733191776,-0.4116230076985234,None
755,50.701,0.3459320068359375,-0.9506378173828125,-0.229522705078125,-0.2346969656724184,-0.33348178845774273,None
756,50.751,0.4617767333984375,-0.6221160888671875,0.2748260498046875,0.4040870177641426,-0.5617258207791036,None
757,50.801,0.4340057373046875,-0.5486297607421875,0.3946685791015625,0.5839686293256497,-0.5403505452546357,None
758,50.851,0.4922637939453125,-0.4696502685546875,0.3627471923828125,0.611274048690026,-0.6384532058045717,None
759,50.901,0.3723297119140625,-0.5577392578125,0.4729461669921875,0.6467491160127883,-0.4537299042705956,None
760,50.95,0.3070831298828125,-0.714935302734375,0.3913116455078125,0.480125317954511,-0.35258331035834933,None
761,51,0.1338653564453125,-0.9090728759765625,0.609283447265625,0.46538583489976776,-0.375468274794837,None
762,51.05,-0.046478271484375,-1.0950927734375,0.82440185546875,0.45227308774322705,-0.3970301455540734,None
763,51.1,-0.0939788818359375,-1.0743255615234375,1.109100341796875,0.4560616651467229,-0.42800118521034775,None
764,51.15,-0.0702972412109375,-0.95458984375,1.157562255859375,0.44626657615055276,-0.4543194271246541,None
765,51.2,-0.024749755859375,-0.8131866455078125,0.909698486328125,0.41880457037248153,-0.4737713451046221,None
766,51.249,0.000396728515625,-0.7258758544921875,0.640533447265625,0.6616534362975868,-0.00040980961215799895,None
767,51.299,0.022003173828125,-0.645599365234375,0.28009033203125,0.3980029176566044,-0.031250811166866094,None
768,51.349,0.06414794921875,-0.6399993896484375,0.04766845703125,0.07427629348911542,-0.09945879181450538,None
769,51.399,-0.0433197021484375,-0.68951416015625,-0.215240478515625,-0.29798149201460983,0.059864753109427966,None
770,51.449,0.263885498046875,-0.5509185791015625,-0.1263427734375,-0.22352844550670195,-0.423038311456489,None
771,51.499,0.255767822265625,-0.3950347900390625,-0.1529388427734375,-0.3610395767413993,-0.5168767818031742,None
772,51.548,0.264801025390625,-0.2331390380859375,-0.2386627197265625,-0.7153363041749414,-0.6216718136139443,None
773,51.598,0.1284332275390625,-0.1749420166015625,-0.6204071044921875,-0.8268874890283954,-0.5562724422993823,None
774,51.648,0.163787841796875,-0.25262451171875,-0.8556365966796875,-0.8934111541879318,-0.4823746086907211,None
775,51.698,0.1499176025390625,-0.41107177734375,-0.88848876953125,-0.9770300283686257,-0.40547360520783204,None
776,51.748,0.9408416748046875,-0.5365447998046875,-1.4095306396484375,-0.9922757438964094,-0.3565609012934269,None
777,52.107,-2.1658477783203125,-0.6779022216796875,2.1237030029296875,-0.9957688589303187,-0.26951541197165346,None
778,52.157,-0.4505157470703125,-0.8991546630859375,-0.6375579833984375,-0.9604774510563278,-0.24017986582535628,None
779,52.206,0.777130126953125,-0.4605560302734375,-2.040069580078125,-0.9194954066278812,-0.3113506092649262,UpperCut
780,52.256,1.157196044921875,-0.7422332763671875,-1.343414306640625,-0.9122893023409483,-0.3437357721096888,None
781,52.306,1.1301727294921875,-0.5998382568359375,-1.1396026611328125,-0.9242060032440274,-0.38090664427019516,None
782,52.356,0.88726806640625,-0.584259033203125,-1.4326629638671875,-0.9309835423712801,-0.39288152633688306,None
783,52.406,0.663330078125,-0.668609619140625,-1.2172393798828125,-0.9619117887522424,-0.374589763556756,None
784,52.456,0.7772674560546875,-0.6974945068359375,-0.930450439453125,-0.9889352404321357,-0.3458469727354695,None
785,52.505,0.426849365234375,-0.9351806640625,-0.769622802734375,-0.9998942970126514,-0.32335748459737584,None
786,52.555,0.3194122314453125,-0.7091522216796875,-0.8834686279296875,-0.9990804281096443,-0.3319354214472038,None
787,52.605,0.245574951171875,-0.6437530517578125,-0.853179931640625,-0.7982594753185113,-0.22393194673945255,None
788,52.655,0.418792724609375,-0.6359100341796875,-0.5514984130859375,-0.6551858517406299,-0.4454436694581992,None
789,52.705,0.3720855712890625,-0.71881103515625,-0.5715789794921875,-0.6223884904374365,-0.37551092595607904,None
790,52.755,0.49932861328125,-0.733612060546875,-0.573822021484375,-0.616102386051834,-0.4724993272261728,None
791,52.805,0.336700439453125,-0.6985321044921875,-0.7653961181640625,-0.7386333966333368,-0.3090236423312427,None
792,52.854,0.2952880859375,-0.6611480712890625,-0.68768310546875,-0.7208779388617372,-0.295699412031984,None
793,52.904,0.2661285400390625,-0.638946533203125,-0.7150115966796875,-0.7456561006171788,-0.2674262111168657,None
794,52.954,0.0979156494140625,-0.7117767333984375,-0.6289520263671875,-0.6621623445699811,-0.10254244903103095,None
795,53.004,-0.004730224609375,-0.72760009765625,-0.597808837890625,-0.6348264969656765,0.0050230673168835185,None
796,53.054,-0.187286376953125,-0.8719482421875,-0.5262451171875,-0.5167149585864887,0.18086196967418347,None
797,53.104,-0.2110137939453125,-0.9243011474609375,-0.4207763671875,-0.41432473190624447,0.20343348230163083,None
798,53.153,-0.10443115234375,-0.858642578125,-0.36651611328125,-0.392585430412083,0.11116574679600619,None
799,53.203,-0.0894317626953125,-0.8727874755859375,-0.4986572265625,-0.49608008579932983,0.08861951869949193,None
800,53.253,-0.02923583984375,-0.8576812744140625,-0.45623779296875,-0.46963250933987405,0.030080558563847386,None
801,53.303,-0.042633056640625,-0.882415771484375,-0.44195556640625,-0.44781957373049813,0.04315847473463664,None
802,53.353,0.022491455078125,-0.790069580078125,-0.402984619140625,-0.4543700457318042,-0.02535123802866744,None
803,53.403,0.045318603515625,-0.672027587890625,-0.48809814453125,-0.5876603621844464,-0.05448165033742213,None
804,53.452,-0.0832672119140625,-0.780029296875,-0.7815704345703125,-0.6455808373376649,0.013553728344827709,None
805,53.502,0.0503082275390625,-0.61572265625,-0.6884918212890625,-0.7454007233160984,-0.05438596061209019,None
806,53.552,-0.2377471923828125,-0.824920654296875,-0.7047271728515625,-0.7520257940081517,0.01858262039247228,None
807,53.602,-0.0312042236328125,-0.625,-0.7763824462890625,-0.7789593375467051,0.03129246124882929,None
808,53.652,-0.1769256591796875,-0.6752166748046875,-0.729400634765625,-0.7338380509382986,0.17524733163857406,None
809,53.702,-0.0838623046875,-0.74285888671875,-0.6109466552734375,-0.6351994180961663,0.08686183706520291,None
810,53.752,0.0241241455078125,-0.635528564453125,-0.9496307373046875,-0.6303195936232044,0.0487205613713941,None
811,53.801,-0.0090484619140625,-0.6439666748046875,-0.73150634765625,-0.7505908184176895,0.009284129582434783,None
812,53.851,-0.03369140625,-0.7455902099609375,-0.69720458984375,-0.6830092512079963,0.03298747427564448,None
813,53.901,-0.0145111083984375,-0.7007598876953125,-0.589141845703125,-0.6435145038184614,0.015848366544612965,None
814,53.951,-0.131072998046875,-0.6683349609375,-0.89715576171875,-0.6620014000986406,0.024257432113800336,None
815,54.001,-0.1754302978515625,-0.6927337646484375,-0.7648162841796875,-0.7411706397521506,0.1676017802183887,None
816,54.051,0.1125640869140625,-0.5474853515625,-0.8367919921875,-0.8368082898718938,-0.11185981295129568,None
