index,time,acc x,acc y,acc z,ori x,ori z,punch
0,0,0.0082244873046875,-0.316650390625,-1.1263275146484375,-0.9626797210707297,0.007029351080396675,None
1,0.05,0.2381591796875,-0.1143646240234375,-1.087188720703125,-0.9511302300318848,0.019975863094191117,None
2,0.1,0.466705322265625,-0.25836181640625,-0.723052978515625,-0.922158158678654,0.09215105453356755,None
3,0.15,0.373443603515625,-0.273834228515625,-0.4568634033203125,-0.8798273387936458,0.22384535066104272,None
4,0.2,-0.23834228515625,-0.8522796630859375,-0.649017333984375,-0.6058432115553606,0.2171769410770096,None
5,0.249,-0.157012939453125,-0.78314208984375,-0.6668548583984375,-0.6483164814942282,0.15090005521665242,None
6,0.299,0.011474609375,-0.5484161376953125,-0.56903076171875,-0.7200289516621146,-0.014517985256374483,None
7,0.349,-0.1612548828125,-0.8408050537109375,-0.316314697265625,-0.35211166876783967,0.17668001895355115,None
8,0.399,0.2593231201171875,-0.676483154296875,-0.441192626953125,-0.5462746962999332,-0.30571526567269985,None
9,0.449,0.2633056640625,-0.6212158203125,-0.8593597412109375,-0.8104253001924333,-0.24099368798240048,None
10,0.499,0.175201416015625,-0.60791015625,-0.8658599853515625,-0.8184281774838408,-0.16337873370222464,None
11,0.549,0.0850372314453125,-0.6479949951171875,-0.849700927734375,-0.7951592464517891,-0.07932796694868052,None
12,0.598,-0.1567840576171875,-0.75958251953125,-0.681793212890625,-0.6679730106478013,0.15182528543278323,None
13,0.648,-0.010833740234375,-0.710784912109375,-0.8108673095703125,-0.751989950265506,0.010046591502376676,None
14,0.698,0.0478057861328125,-0.63616943359375,-0.79180908203125,-0.7795597551203602,-0.04701418337746319,None
15,0.748,-0.0681610107421875,-0.5766143798828125,-0.6499786376953125,-0.7480629673040432,0.07820650671168242,None
16,0.798,0.0272216796875,-0.474334716796875,-0.712738037109375,-0.8324942218984863,-0.03177948061877442,None
17,0.848,-0.0399932861328125,-0.5414581298828125,-0.6912841796875,-0.787254484982313,0.04549834855706819,None
18,0.897,0.484100341796875,-0.3486480712890625,-0.5700225830078125,-0.7727121589284682,-0.018567184724112416,None
19,0.947,0.161376953125,-0.438507080078125,-0.56512451171875,-0.7900523778394293,-0.22007607320780181,None
20,0.997,0.22357177734375,-0.3390045166015625,-0.7596588134765625,-0.8368066037033012,-0.18008577724267555,None
21,1.047,0.141265869140625,-0.448028564453125,-0.6163787841796875,-0.8088901911612353,-0.18228105280401777,None
22,1.097,0.206756591796875,-0.6373138427734375,-0.600311279296875,-0.6856592909950058,-0.22983017528306948,None
23,1.147,0.9175262451171875,-0.973907470703125,-1.0406341552734375,-0.7684934146142332,-0.2259284568654493,None
24,1.407,-2.1294403076171875,0.4394073486328125,-0.531494140625,-0.8361180209039503,-0.29785404618937805,Body
25,1.457,-0.6607513427734375,-0.8238372802734375,-1.6155242919921875,-0.8432149844004326,-0.31708819949374334,None
26,1.507,-0.2150421142578125,-1.307525634765625,-1.166961669921875,-0.8216441004453708,-0.3744814992116281,None
27,1.557,0.159576416015625,-0.5170135498046875,-1.4344940185546875,-0.838421683222177,-0.47850387926863697,None
28,1.606,0.4487152099609375,-0.2116546630859375,-1.1414642333984375,-0.8200255257267808,-0.5491861340632888,None
29,1.656,0.2220306396484375,-0.066741943359375,-0.826690673828125,-0.7986533416378782,-0.5929577227108962,None
30,1.706,-0.1279144287109375,-0.3649139404296875,-0.759490966796875,-0.8271531166359046,-0.6209616283184672,None
31,1.756,0.3032379150390625,-0.253875732421875,-1.3824310302734375,-0.8766544545184879,-0.6783054208655718,None
32,1.806,1.0993194580078125,-0.4016876220703125,-0.9926605224609375,-0.898428092122953,-0.7246798436657943,None
33,1.856,1.7541961669921875,-0.3615264892578125,-0.779693603515625,-0.9260189444702072,-0.7577361557107877,None
34,2.165,-2.050811767578125,0.1492462158203125,0.127227783203125,-0.9510553172500801,-0.7075900722549814,None
35,2.215,-0.4536895751953125,-1.145172119140625,-1.007354736328125,-0.976990338153171,-0.6396579887458064,None
36,2.264,0.1473388671875,-1.5408477783203125,-1.2115936279296875,-0.9880542298808683,-0.621841338806186,Body
37,2.314,0.6018218994140625,-1.282806396484375,-1.2324371337890625,-0.9940822575281908,-0.6187861771371514,None
38,2.364,0.686187744140625,-1.2462921142578125,-0.9263153076171875,-0.9924710533226035,-0.6252758761886877,None
39,2.414,0.645172119140625,-1.0193634033203125,-0.695343017578125,-0.9965823868172399,-0.6508762820347522,None
40,2.464,0.792755126953125,-0.668609619140625,-0.3239288330078125,-0.43600591008473794,-0.7296574986753233,None
41,2.514,0.7885284423828125,-0.4913482666015625,-0.5321044921875,-0.43231919539276725,-0.7624454323614903,None
42,2.563,0.6905059814453125,-0.55194091796875,-0.559661865234375,-0.712001013990159,-0.6599759051027551,None
43,2.613,0.4572296142578125,-0.5309906005859375,-0.717193603515625,-0.8036986294048636,-0.45600537767215593,None
44,2.663,0.4072113037109375,-0.4510955810546875,-0.532958984375,-0.7632942674300934,-0.5037855401255579,None
45,2.713,0.404296875,-0.3847198486328125,-0.5366668701171875,-0.7859899958115278,-0.5113279573047272,None
46,2.763,0.339996337890625,-0.368133544921875,-0.7540740966796875,-0.787803684423452,-0.489334261671379,None
47,2.813,0.3343505859375,-0.5379638671875,-0.787384033203125,-0.8256846404609919,-0.3308668572638805,None
48,2.862,0.118133544921875,-0.8729248046875,-1.011444091796875,-0.7721598944067585,-0.26374462937866316,None
49,2.912,-0.172332763671875,-1.3780670166015625,-1.2937774658203125,-0.7700306931608981,-0.19446418546705424,None
50,2.962,0.06756591796875,-1.181427001953125,-1.2257232666015625,-0.7855365678723297,-0.13872528142280838,None
51,3.012,-0.31756591796875,-1.237762451171875,-1.27899169921875,-0.7783489389815175,-0.08839591241358521,None
52,3.062,-0.468994140625,-1.179962158203125,-1.216888427734375,-0.7722241028520864,-0.06412659280229564,None
53,3.112,-0.505859375,-1.2132110595703125,-0.696380615234375,-0.7442268979146421,-0.08735440083492456,None
54,3.162,-0.658966064453125,-1.1394500732421875,-0.6881103515625,-0.7602896111997856,-0.14275991272157856,None
55,3.211,-0.2883148193359375,-0.7519989013671875,-0.78582763671875,-0.7549967878525018,-0.22032200285499953,None
56,3.261,-0.027496337890625,-0.481658935546875,-0.5240936279296875,-0.7362859534140066,0.03860012470410772,None
57,3.311,0.061492919921875,-0.394989013671875,-0.29833984375,-0.6027092353935097,-0.12328099191781026,None
58,3.361,0.101531982421875,-0.2507781982421875,0.0057220458984375,0.022811221255807375,-0.37519308045997024,None
59,3.411,0.048065185546875,-0.039459228515625,0.252197265625,0.021605160147606606,-0.39523316010181864,None
60,3.461,-0.1650238037109375,0.2254180908203125,0.0339813232421875,-0.05550858665547274,-0.4153783157772899,None
61,3.51,-0.1233367919921875,0.3347015380859375,-0.1390533447265625,-0.146430744811601,-0.4161120409123412,None
62,3.56,0.069580078125,0.1981048583984375,-0.6167144775390625,-0.23179046388330266,-0.4003163858341238,None
63,3.61,0.5347747802734375,-0.3506927490234375,-1.29217529296875,-0.4222672067208794,-0.3701382096734947,None
64,3.929,-2.06439208984375,-0.383331298828125,0.9676361083984375,-0.32746534878375483,-0.3067435754507764,None
65,4.019,0.49871826171875,-1.219268798828125,-2.1982269287109375,-0.27194556928074715,-0.28319423466790955,Body
66,4.069,0.164276123046875,-1.3047637939453125,-0.3757781982421875,-0.09591689719333583,-0.21084940226792842,None
67,4.119,0.1546783447265625,-0.6716766357421875,-0.69482421875,-0.7189815379145112,-0.15804454016010477,None
68,4.168,0.171417236328125,-0.62713623046875,-0.051666259765625,-0.08210626384335983,-0.262832869229592,None
69,4.218,0.1098480224609375,-0.61126708984375,-0.3359527587890625,-0.4816499974052939,-0.15556989443694869,None
70,4.268,0.3493499755859375,-1.0384063720703125,-2.02496337890625,-0.5601724173549806,-0.1426217641454057,None
71,4.318,0.1838531494140625,-1.316986083984375,-1.059112548828125,-0.5791915477007074,-0.11522225350657989,None
72,4.368,0.2590179443359375,-0.5903472900390625,-0.327789306640625,-0.4854376224222588,-0.35814582254279603,None
73,4.418,0.56561279296875,0.2465972900390625,0.7151641845703125,-0.5827787864555268,-0.4963945430348538,None
74,4.467,0.7371673583984375,0.3845672607421875,-0.0588531494140625,-0.7037346969526156,-0.5655426895072683,None
75,4.517,0.5099945068359375,-0.7108154296875,0.100067138671875,0.13940334887377834,-0.5791779354880028,None
76,4.816,-2.10308837890625,0.614013671875,0.2484588623046875,0.032603053047885654,-0.6501515969299412,None
77,4.866,-0.3642120361328125,-1.712249755859375,-2.06500244140625,-0.08374639902966106,-0.6123356556857412,Body
78,4.916,-0.5537567138671875,-1.6639404296875,-2.216400146484375,-0.09957074814426546,-0.6039209091612286,None
79,4.966,-0.068817138671875,-0.8867645263671875,-1.2798919677734375,-0.06049079547880948,-0.6533347885917732,None
80,5.016,0.0875244140625,-0.28631591796875,-0.9014434814453125,0.03991312938311864,-0.7358593707486307,None
81,5.066,0.3037261962890625,0.1210479736328125,-0.8544921875,0.03585018935695747,-0.8268357009484422,None
82,5.115,0.5626220703125,0.447784423828125,-0.656524658203125,0.029491158368895237,-0.8950915630019567,None
83,5.165,0.3951416015625,0.2869720458984375,-0.498992919921875,0.014430310113942442,-0.9208526322717827,None
84,5.215,0.60809326171875,0.0948333740234375,-1.3525390625,-0.08500242794024733,-0.9335568245174072,None
85,5.265,0.61602783203125,-0.3812255859375,-1.6242828369140625,-0.1612384624265537,-0.9357745815821159,None
86,5.315,0.3690948486328125,-0.8727264404296875,-1.511962890625,-0.23262177443872012,-0.9329705486421627,None
87,5.365,1.323577880859375,-0.944549560546875,-1.701904296875,-0.3336961554962666,-0.9276912944215849,None
88,5.664,-2.9257354736328125,-0.106414794921875,-0.641143798828125,-0.4084277305871736,-0.9221067028488118,None
89,5.753,-0.17926025390625,-1.1157684326171875,-2.0084686279296875,-0.4602918819177612,-0.9584424342091031,Body
90,5.803,0.4157867431640625,-0.428466796875,-1.43218994140625,-0.4603392848386304,-0.9898056046721135,None
91,5.853,0.641632080078125,-0.148651123046875,-1.230377197265625,-0.4393448530931482,-0.9998529786561972,None
92,5.903,0.6372833251953125,-0.13677978515625,-0.997161865234375,-0.4265124186237379,-0.996142482461966,None
93,5.953,0.7473907470703125,0.109161376953125,-0.469390869140625,-0.49144970491387574,-0.9797402059445759,None
94,6.003,0.8160552978515625,0.1510162353515625,-1.2197113037109375,-0.4999202594395676,-0.9683100785833446,None
95,6.052,0.0943756103515625,-0.466033935546875,-1.0316619873046875,-0.4726436632378913,-0.9714988751167866,None
96,6.102,0.168121337890625,-0.3782958984375,-1.2083587646484375,-0.5709767213698889,-0.9666308497957085,None
97,6.152,0.7169342041015625,-0.2601470947265625,-1.22845458984375,-0.705239667127421,-0.9562885081319736,None
98,6.511,-2.3131561279296875,-0.3612060546875,-0.2346649169921875,-0.7578046941259501,-0.9584152009683916,None
99,6.601,0.0102081298828125,-1.074493408203125,-2.1442413330078125,-0.7958110155729902,-0.9484247019794655,Body
100,6.651,0.237884521484375,-0.5605010986328125,-1.193572998046875,-0.8206084785788114,-0.9141269061813753,None
101,6.7,0.2386016845703125,-0.2649383544921875,-1.255889892578125,-0.8320448019678106,-0.8554663769739869,None
102,6.75,0.1492767333984375,0.2050018310546875,-1.395904541015625,-0.8629816550373096,-0.7725576122269057,None
103,6.8,0.861480712890625,0.3991851806640625,-1.5966796875,-0.86189460917674,-0.7195537589742824,None
104,6.85,0.546875,0.0441436767578125,-1.0922393798828125,-0.8522058970590388,-0.6936528090620251,None
105,6.9,0.479156494140625,-0.25897216796875,-0.7414398193359375,-0.8733052736849631,-0.6501591934015063,None
106,6.95,0.612335205078125,-0.2747802734375,-1.0614471435546875,-0.9261540165324356,-0.582897869776166,None
107,6.999,1.3719482421875,-0.4523468017578125,-2.0016632080078125,-0.969113891726144,-0.5324248032474798,None
108,7.338,-2.2079925537109375,-0.2926177978515625,0.065155029296875,-0.9856192990877812,-0.5320590601367942,None
109,7.508,0.6839599609375,-0.3875274658203125,-2.0716400146484375,-0.9795620810783897,-0.46734241289811246,Body
110,7.558,0.8180999755859375,-0.26690673828125,-1.2849273681640625,-0.9759382656813836,-0.4210389401844876,None
111,7.608,1.0182037353515625,-0.099578857421875,-0.6326751708984375,-0.9747789461794493,-0.35490843175677056,None
112,7.657,0.594085693359375,-0.22314453125,-0.368011474609375,-0.9735016036750325,-0.3217796755079364,None
113,7.707,0.446563720703125,-0.4116668701171875,-0.578582763671875,-0.9826792666916462,-0.2863897274796217,None
114,7.757,0.3919830322265625,-0.7473297119140625,-0.802215576171875,-0.9978769063781144,-0.26787396437216254,None
115,7.807,1.3671722412109375,-1.1307220458984375,-1.5320281982421875,-0.9969497385612405,-0.2603980839604486,None
116,8.125,-2.195953369140625,-0.2120361328125,0.7405548095703125,-0.9918124674367864,-0.28388600668064506,None
117,8.174,-1.2899322509765625,-1.2869720458984375,-1.9763031005859375,-0.9828527572106424,-0.3117889442798444,None
118,8.274,0.5839385986328125,-0.511871337890625,-2.04815673828125,-0.9797565963294923,-0.25498952617060777,None
119,8.324,0.7678680419921875,-0.537872314453125,-1.5408935546875,-0.9764064473462016,-0.19729556410485935,None
120,8.374,0.9017791748046875,-0.588226318359375,-0.6678466796875,-0.9699749166185484,-0.15855892010713207,None
121,8.424,0.70703125,-0.3385467529296875,-0.5562744140625,-0.9559847109903974,-0.09254535594743579,None
122,8.474,0.520355224609375,-0.2128143310546875,-1.0849151611328125,-0.949753763210264,-0.07779395157496317,None
123,8.523,0.2930145263671875,-0.292877197265625,-0.5642547607421875,-0.9384120039429966,-0.06807901060414646,None
124,8.573,0.265380859375,-0.2888031005859375,-0.9440155029296875,-0.8834046144404293,-0.055724509593571524,None
125,8.623,1.2342071533203125,-0.262542724609375,-1.2379608154296875,-0.847159559784169,-0.09595549126368877,None
126,8.963,-2.0816650390625,0.5670166015625,0.21942138671875,-0.8501360198242832,-0.049612097469378835,None
127,9.013,-0.6669464111328125,-0.4758148193359375,-1.4556732177734375,-0.8310959769493235,-0.07972799755884528,Body
128,9.063,-0.694061279296875,-1.3086090087890625,-1.7296905517578125,-0.8394514777579885,-0.1451497196534938,None
129,9.133,0.878326416015625,0.0480499267578125,-2.06817626953125,-0.7861032405352641,0.025753683786984102,None
130,9.183,0.926513671875,-0.07769775390625,-1.5845794677734375,-0.778200390100774,0.12341466971131693,None
131,9.232,0.659027099609375,-0.22296142578125,-1.024749755859375,-0.7811320860666474,0.18187066238827568,None
132,9.282,0.6085205078125,-0.0222015380859375,-1.1844329833984375,-0.774692955271934,0.2383971384225843,None
133,9.332,0.3979034423828125,-0.0576629638671875,-0.7922515869140625,-0.789481294823562,0.24109085908511219,None
134,9.382,0.3792877197265625,-0.1879425048828125,-0.90740966796875,-0.7666098320854109,0.24198947427045686,None
135,9.432,0.4156646728515625,-0.420654296875,-1.0816497802734375,-0.7104474529406125,0.23571202508246825,None
136,9.482,0.7952117919921875,-0.7377166748046875,-1.0214385986328125,-0.665782650320577,0.20039079304940155,None
137,9.531,1.0062713623046875,-1.0701904296875,-1.9385833740234375,-0.5950996197709073,0.151133241546832,None
138,9.88,-2.02630615234375,-0.4492645263671875,-0.62335205078125,-0.47987992756954095,0.1793344217050571,None
139,10,0.972869873046875,-0.3937530517578125,-2.162109375,-0.48706563899856614,0.2566628698896573,Body
140,10.05,0.6648101806640625,-0.678741455078125,-1.330535888671875,-0.5109668074735656,0.2950744981925228,None
141,10.1,0.797607421875,-0.5383453369140625,-1.006195068359375,-0.49908204586438204,0.3646022294896607,None
142,10.15,0.75262451171875,-0.3145599365234375,-1.1314697265625,-0.4666282395492551,0.4383201827054409,None
143,10.199,0.897003173828125,-0.1875,-0.6245574951171875,-0.5331201307745026,0.4804251923595457,None
144,10.249,0.227203369140625,-0.5735015869140625,-0.6294403076171875,-0.7391895969455823,-0.257799678589688,None
145,10.299,0.1354522705078125,-0.6096343994140625,-0.7085418701171875,-0.7580326462533437,-0.14341541325586823,None
146,10.349,0.140380859375,-0.8345184326171875,-0.6343994140625,-0.6051832803987739,-0.13273099486645967,None
147,10.399,1.711334228515625,-0.6723175048828125,-1.94573974609375,-0.7538397446665135,-0.18881653707023105,None
148,10.716,-2.279876708984375,-0.5436553955078125,-0.8706817626953125,-0.8686119380036189,-0.15240828848514631,None
149,10.778,-0.203369140625,-0.636749267578125,-2.145843505859375,-0.9154492333154886,-0.14555626359629076,Body
150,10.827,-0.1933441162109375,-0.6686248779296875,-1.1679534912109375,-0.9381606810082574,-0.1644819615772862,None
151,10.877,-0.0116119384765625,-0.4973602294921875,-1.51043701171875,-0.97156528397989,-0.21820953193110934,None
152,10.927,0.5766754150390625,-0.44189453125,-1.6782379150390625,-0.978771755473005,-0.25718815317098154,None
153,10.977,0.3988037109375,-0.5640411376953125,-1.8582000732421875,-0.9872396502918798,-0.3276267107399279,None
154,11.027,0.41815185546875,-0.5605316162109375,-1.351470947265625,-0.9884024958839034,-0.39740939663139824,None
155,11.077,0.833526611328125,-0.4515228271484375,-1.1551361083984375,-0.9864106368416633,-0.4449380185004872,None
156,11.126,0.5648651123046875,-0.745391845703125,-1.071075439453125,-0.9749087716129382,-0.46211631656136654,None
157,11.176,1.144256591796875,-0.6844482421875,-1.06005859375,-0.9831584827790375,-0.460217233260054,None
158,11.485,-2.033111572265625,-0.6108245849609375,-0.5941314697265625,-0.9937352905098442,-0.4548735382949744,None
159,11.535,-1.3571014404296875,-1.601654052734375,-1.8460235595703125,-0.9964787903760307,-0.4192270914050877,None
160,11.585,-0.6539459228515625,-1.1722564697265625,-1.3995819091796875,-0.9976185179629578,-0.44887479428084903,Body
161,11.635,-0.0407867431640625,-0.5357208251953125,-1.600738525390625,-0.9939866002659585,-0.5346760894009165,None
162,11.685,0.0657958984375,-0.3412933349609375,-1.1587677001953125,-0.9871364126757834,-0.6076966244098534,None
163,11.735,0.3532257080078125,0.17047119140625,-0.8895416259765625,-0.9951261792004626,-0.6975234027248769,None
164,11.784,0.5456390380859375,0.3795318603515625,-0.6259307861328125,-0.9996878225819497,-0.7718459331755342,None
165,11.834,0.424652099609375,0.21044921875,-1.1716766357421875,-0.9978901701517091,-0.8118383432263703,None
166,11.884,0.19384765625,-0.24407958984375,-1.3044281005859375,-0.9959541426822749,-0.8172161173242829,None
167,11.934,0.214996337890625,-0.6617889404296875,-1.05517578125,-0.9865166202205091,-0.7986388949819995,None
168,12.007,0.93902587890625,-0.3179779052734375,-1.9017333984375,-0.9315638737780215,-0.7622446929798157,None
169,12.062,0.7789154052734375,-0.516845703125,-1.56268310546875,-0.9118518768516845,-0.6430250520404869,None
170,12.333,-2.1119537353515625,-0.2745819091796875,1.35333251953125,-0.9086166092030141,-0.5852646939439369,None
171,12.382,-0.7409820556640625,-1.35931396484375,-2.1074676513671875,-0.8784217712764845,-0.5616198033537112,Body
172,12.432,-0.0609893798828125,-1.15478515625,-1.44476318359375,-0.8769924043192071,-0.5870411011834251,None
173,12.482,0.065155029296875,-0.6212921142578125,-1.1240692138671875,-0.8693228209934025,-0.6258063723262725,None
174,12.532,0.344146728515625,-0.2582855224609375,-0.6565399169921875,-0.8722916024169238,-0.6689452051753516,None
175,12.582,0.1689910888671875,-0.1880645751953125,-0.773101806640625,-0.8858548926109137,-0.6706077521322219,None
176,12.632,0.117645263671875,-0.32269287109375,-1.27606201171875,-0.8839804250156841,-0.6405534171605407,None
177,12.682,0.49163818359375,-0.6343841552734375,-0.7968902587890625,-0.8979669342165641,-0.6293622934133213,None
178,12.731,0.693115234375,-0.5998992919921875,-1.4411468505859375,-0.8447932206459735,-0.6623942326229552,None
179,12.781,0.8488922119140625,-0.4110565185546875,-1.321319580078125,-0.8060273087732436,-0.7088369022817415,None
180,12.831,0.646697998046875,-0.49468994140625,-0.9798736572265625,-0.7738328227928968,-0.691978880159971,None
181,12.881,0.7093658447265625,-0.4032135009765625,-1.1065521240234375,-0.8182025686644461,-0.6910501141129767,None
182,12.931,0.4462127685546875,-0.5863037109375,-1.9393768310546875,-0.8914532124591915,-0.6494785082891178,None
183,12.981,-0.078094482421875,-0.5949859619140625,-1.556884765625,-0.987625721139069,-0.5743122791036953,None
184,13.03,-0.3249969482421875,-0.3976898193359375,-0.4152069091796875,-0.7221765514288703,0.4920938180639182,None
185,13.08,-0.3188629150390625,-0.3861541748046875,0.13922119140625,0.33916302745854165,0.6134575701169293,None
186,13.13,-0.37249755859375,-0.1404571533203125,-0.1046142578125,0.4357814047695488,0.6581725834501339,None
187,13.18,-0.675628662109375,-0.13336181640625,0.0637359619140625,0.5244644077290239,0.6879968885443556,None
188,13.23,-1.3480987548828125,-0.6814422607421875,0.155975341796875,0.5241536570825515,0.7190949277100916,None
189,13.28,-1.9102325439453125,-1.265655517578125,-0.1426849365234375,0.5213487765972219,0.6958696290111346,None
190,13.358,-2.0450439453125,-1.220062255859375,-0.3664703369140625,0.5207374407347587,0.5962883227755756,None
191,13.408,-1.3836517333984375,-0.9775848388671875,-0.7646942138671875,0.6026956247254175,0.4178119958789029,None
192,13.458,-0.4611968994140625,-0.7201385498046875,-0.4140472412109375,-0.49844178885224727,0.4854066282400208,None
193,13.508,-0.03472900390625,-0.3084869384765625,-0.1731414794921875,-0.48943981491659,0.09770295130699931,None
194,13.558,0.2358245849609375,-0.10626220703125,-0.113861083984375,-0.47951560864078147,0.07424328718196113,None
195,13.607,0.369110107421875,-0.0411376953125,-0.5654754638671875,-0.48283951052262036,0.0889739014084013,None
196,13.657,0.6385345458984375,-0.2079315185546875,-0.336669921875,-0.5059804500247509,0.1662228537500802,None
197,13.707,0.5532684326171875,-0.745086669921875,-0.596649169921875,-0.5900532497922238,0.21635950540215557,None
198,13.757,0.8174896240234375,-0.720794677734375,-0.7060699462890625,-0.6820743670297247,0.24767173938814732,None
199,13.807,0.9617462158203125,-0.1855010986328125,-0.034820556640625,-0.8190037299196783,0.26081242295629614,None
200,13.857,0.79351806640625,0.3026885986328125,0.4815826416015625,-0.9830018046387444,0.2625026779699541,None
201,14.147,-2.0491943359375,0.547882080078125,0.256683349609375,-0.9998291325371484,0.25963367530147985,None
202,14.197,-0.992706298828125,-1.230499267578125,-1.7434539794921875,-0.9999980680977331,0.41037349244092375,Body
203,14.247,-0.3251800537109375,-1.70513916015625,-0.6910552978515625,-0.998895524232749,0.5419912256406907,None
204,14.296,0.316192626953125,-1.4264068603515625,-1.2080535888671875,-0.9961275887018025,0.6155874967117335,None
205,14.346,0.812774658203125,-1.4545135498046875,-1.0281829833984375,-0.9910356728904557,0.6529145415576724,None
206,14.396,0.8135986328125,-1.4627227783203125,-0.6269378662109375,-0.9730430382636845,0.6979727955031858,None
207,14.446,0.5188751220703125,-0.8468475341796875,-0.0365447998046875,-0.04311380477956156,-0.5220912791453063,None
208,14.496,0.5771026611328125,-0.2223968505859375,0.096282958984375,-0.031242871470578748,-0.5623743050645668,None
209,14.546,0.6371307373046875,-0.4937896728515625,-0.543914794921875,-0.7403994920932989,-0.6551989461877846,None
210,14.595,0.736236572265625,-1.423797607421875,-1.0406951904296875,-0.7340807855042242,-0.6474445047615687,None
211,14.645,1.2528228759765625,-1.463623046875,-1.46539306640625,-0.7264632998812157,-0.6730936072978512,None
212,14.695,0.85589599609375,-1.16607666015625,-1.339752197265625,-0.7196171962502048,-0.6964815832145296,None
213,14.745,0.5889434814453125,-0.5748443603515625,-0.492462158203125,-0.6505921386507146,-0.6140762871857391,None
214,14.795,-0.0138397216796875,-0.3578033447265625,-0.5186920166015625,-0.8231499499347634,0.021957961822676918,None
215,14.845,0.22991943359375,-0.1401824951171875,0.54681396484375,-0.6034603376127559,-0.10078318960650805,None
216,14.895,0.06829833984375,-0.120758056640625,0.674774169921875,-0.4630990606552776,-0.22306482587775892,None
217,14.944,0.251007080078125,-0.310028076171875,1.1495361328125,-0.39716253161161175,-0.31040471029484784,None
218,14.994,-0.127777099609375,-0.6982879638671875,0.7495574951171875,0.7316874789484703,0.12377170710068215,None
219,15.044,-0.0752716064453125,-0.6015472412109375,0.66424560546875,0.7412230753908912,0.08369987522929181,None
220,15.094,0.161651611328125,-0.5355682373046875,0.756439208984375,0.8161480603672946,-0.17181772184504177,None
221,15.144,0.024383544921875,-0.7248077392578125,0.8025360107421875,0.742131849179129,-0.02254254839045623,None
222,15.194,-0.2784881591796875,-1.5599822998046875,1.2044830322265625,0.745592156247903,0.0043716295951816055,None
223,15.243,-0.3661956787109375,-1.429046630859375,1.403656005859375,0.7657411962657587,0.009541759467625706,None
224,15.293,-0.291595458984375,-1.34234619140625,1.420562744140625,0.8174945266034828,0.02033477411482262,None
225,15.343,0.0695037841796875,-0.8147125244140625,0.4392547607421875,0.4745716370065872,-0.07488119034154575,None
226,15.393,0.1721954345703125,-0.0810699462890625,-0.652069091796875,0.451780219585638,-0.03994201540242981,None
227,15.443,-0.1437835693359375,0.9303131103515625,-0.7335968017578125,0.470072589517984,0.06926061127176499,None
228,15.493,-0.4215087890625,1.1129608154296875,-0.245086669921875,0.41554733985987796,0.3066989383353819,None
229,15.543,0.085693359375,0.576141357421875,-1.09521484375,0.10466713088550979,0.546004628783463,None
230,15.612,1.445953369140625,-0.8238983154296875,-2.1498260498046875,-0.20660892382290402,0.6446651008293215,None
231,15.931,-2.24560546875,0.12646484375,-0.99383544921875,-0.31933703696718024,0.7084783532474874,Body
232,15.981,-0.9227447509765625,-1.319671630859375,-0.4192657470703125,-0.29739608186285693,0.7790112784589638,None
233,16.031,0.2992095947265625,-1.797882080078125,-1.3737030029296875,-0.2640035940060394,0.8337936422617019,None
234,16.091,0.8563079833984375,-1.5438995361328125,-1.93463134765625,-0.2694105723921328,0.8645237859234363,None
235,16.141,0.615631103515625,-1.4560089111328125,-0.9042205810546875,-0.09494150292420811,0.9077163041411802,None
236,16.19,0.2429046630859375,-1.2346954345703125,-0.57183837890625,0.051041133225272976,0.9268727366601003,None
237,16.24,0.208526611328125,-0.8152618408203125,-0.533172607421875,-0.5473333455239967,-0.2093226882861737,None
238,16.29,0.080596923828125,-0.599334716796875,-0.0505218505859375,-0.08399863775001915,-0.13281491183207308,None
239,16.34,0.455902099609375,-0.37933349609375,-0.280059814453125,-0.5939560375016087,-0.6951034597316699,None
240,16.39,0.855224609375,-0.64794921875,-0.37841796875,-0.6275818531612792,-0.722368721523343,None
241,16.44,0.9537353515625,-0.8773193359375,-0.962066650390625,-0.6632801986519529,-0.7336732974704271,None
242,16.49,0.8184967041015625,-0.9985504150390625,-0.809234619140625,-0.6636341966659812,-0.735688196900564,None
243,16.539,0.757537841796875,-0.9635162353515625,-0.7848663330078125,-0.6715753026657468,-0.7342666917560108,None
244,16.589,0.720855712890625,-0.84759521484375,-0.837158203125,-0.6406787488805681,-0.743560458511297,None
245,16.639,0.7158660888671875,-0.613677978515625,-0.9210968017578125,-0.5597440746939667,-0.7489288352876596,None
246,16.689,0.3565826416015625,-0.7194976806640625,-0.5148773193359375,-0.5819492740180298,-0.37381522223746544,None
247,16.739,0.0688018798828125,-0.682861328125,-0.174285888671875,-0.24730107435881732,-0.09716375750737327,None
248,16.789,-0.248138427734375,-0.659454345703125,-0.097015380859375,-0.14554803193838076,0.34888061545839344,None
249,16.838,-0.8315582275390625,-1.049560546875,0.353302001953125,-0.08332784635108335,0.37151262346327424,None
250,16.888,-0.83905029296875,-1.0030364990234375,0.3532867431640625,-0.047887585700314816,0.3550341437764643,None
251,16.938,-0.6520843505859375,-0.840789794921875,0.568450927734375,-0.05630418223362484,0.3178372714411215,None
252,16.988,-0.904296875,-0.9204559326171875,0.6854095458984375,-0.04344199627565977,0.2913727224851985,None
253,17.038,-1.2396240234375,-1.3712921142578125,0.3355255126953125,-0.053881381623177724,0.30402722887924655,None
254,17.088,-0.7307586669921875,-1.401031494140625,-0.120452880859375,-0.07850354652947765,0.319325352585233,None
255,17.137,-0.42474365234375,-1.2244720458984375,-0.2436370849609375,-0.09933837321337609,0.3652430500577537,None
256,17.187,0.0814666748046875,-0.43304443359375,-0.5728607177734375,-0.797722404091974,-0.11272129405120085,None
257,17.237,0.0052947998046875,-0.0403900146484375,-0.5456085205078125,-0.8382633885918118,-0.05092869561333916,None
258,17.287,0.2885589599609375,0.2119598388671875,-0.8495025634765625,-0.9008038774937125,-0.01643002455832293,None
259,17.337,-0.1199798583984375,-0.3646392822265625,-0.9246826171875,-0.9492451773777655,0.06035385055262919,None
260,17.387,0.26287841796875,-0.7388916015625,-1,-0.9929597133943847,0.10036190241511297,None
261,17.437,1.066619873046875,-1.19976806640625,-1.6977081298828125,-0.9875470240266648,0.10794223824133023,None
262,17.756,-2.271240234375,-0.417510986328125,-0.6309356689453125,-0.9724911434075477,0.11575013516295511,None
263,17.845,-0.050933837890625,-1.1642303466796875,-2.303131103515625,-0.9896035453513751,0.141605842331847,Body
264,17.895,0.0746307373046875,-1.028900146484375,-1.0244140625,-0.9921676826288144,0.09070899552122597,None
265,17.945,0.533203125,-0.4489593505859375,-0.964813232421875,-0.9943705443519363,0.0395739520636605,None
266,17.995,0.679351806640625,-0.3007049560546875,-0.6705169677734375,-0.9979024625432114,-0.02972696737005079,None
267,18.045,0.814208984375,-0.1450347900390625,-0.445709228515625,-0.9946502438923295,-0.10741802118231351,None
268,18.094,0.7436370849609375,-0.308349609375,-1.2378692626953125,-0.9969195631119007,-0.1480183434662183,None
269,18.144,0.594757080078125,-0.4370269775390625,-0.8399810791015625,-0.9970639383611496,-0.1978027251821607,None
270,18.194,0.3345489501953125,-0.4108428955078125,-0.74090576171875,-0.9963897545787994,-0.23504873386797817,None
271,18.244,0.274658203125,-0.355926513671875,-0.5102996826171875,-0.8201997474019237,-0.4038538503817544,None
272,18.294,0.262481689453125,-0.2310028076171875,-0.390106201171875,-0.8712246931760623,-0.4393103425871407,None
273,18.344,0.850830078125,-0.0601043701171875,-0.718780517578125,-0.9130360042595486,-0.4183053000546578,None
274,18.663,-2.631805419921875,0.0019989013671875,0.5958099365234375,-0.9533507039375112,-0.45795453654861296,None
275,18.762,0.2240447998046875,-1.1306610107421875,-2.2115631103515625,-0.9588974770062204,-0.5113371482937288,Body
276,18.812,0.4517669677734375,-0.605926513671875,-1.05413818359375,-0.9532535096359026,-0.5802119032184548,None
277,18.862,0.6934356689453125,-0.2557830810546875,-1.1293182373046875,-0.9366482232727651,-0.6415193306426688,None
278,18.912,0.538604736328125,-0.3659210205078125,-1.0686798095703125,-0.9167606348416554,-0.6723338782216655,None
279,18.962,0.5315704345703125,-0.319000244140625,-0.862152099609375,-0.9019923008111768,-0.7049986036678826,None
280,19.012,0.5069427490234375,-0.2692413330078125,-0.9479522705078125,-0.885063522722721,-0.7246317332718477,None
281,19.061,0.4692840576171875,-0.3722991943359375,-1.0402984619140625,-0.8593119756498886,-0.7387247115308093,None
282,19.111,0.4648590087890625,-0.5355377197265625,-0.9206085205078125,-0.8105219648156834,-0.7499400785205299,None
283,19.161,0.332366943359375,-0.6850128173828125,-0.6316375732421875,-0.6778848353650693,-0.3359682769791769,None
284,19.211,0.393524169921875,-0.55999755859375,-0.9784698486328125,-0.7202847407005091,-0.38698571454614045,None
285,19.261,0.3083953857421875,-0.6099700927734375,-0.77398681640625,-0.7854116049194041,-0.29866413261746194,None
286,19.311,0.25927734375,-0.4421234130859375,-0.99859619140625,-0.7370099308590288,-0.31077302151277364,None
287,19.36,0.134063720703125,-0.890899658203125,-1.1614837646484375,-0.584104009017585,-0.2833624355566098,None
288,19.41,-0.0639190673828125,-1.59051513671875,-0.620361328125,-0.425773402939187,-0.2591057752355704,None
289,19.46,0.0583953857421875,-1.41021728515625,-0.856475830078125,-0.3690135368348764,-0.2859288313386959,None
290,19.51,0.1643524169921875,-0.8070220947265625,-0.411895751953125,-0.4546015071656844,-0.17848010940540437,None
291,19.56,-0.1287689208984375,-0.6196441650390625,-0.119537353515625,-0.18942042060044106,0.1999292040746201,None
292,19.61,-0.0849151611328125,-0.4594268798828125,0.030364990234375,0.06594930816588178,0.18136744760028986,None
293,19.66,-0.124725341796875,-0.4334259033203125,-0.0500946044921875,-0.11481392612436125,0.2748535380236637,None
294,19.709,-0.0840301513671875,-0.5157470703125,-0.0673980712890625,-0.12957872425569628,0.1594874464801181,None
295,19.759,-0.1327972412109375,-0.566802978515625,-0.0652923583984375,-0.11443732782986164,0.22669310381884047,None
296,19.809,-0.259918212890625,-0.9717559814453125,0.0267333984375,0.027499998426306484,0.25829835791683803,None
297,19.859,-0.8903656005859375,-1.4706878662109375,0.0984954833984375,0.029836387153606748,0.27740251304743657,None
298,19.909,-1.1719818115234375,-1.7517547607421875,0.58184814453125,0.041166668972606645,0.2617704714026592,None
299,19.959,-1.0813751220703125,-1.5660858154296875,0.71063232421875,0.045656126984027004,0.21914262967476478,None
300,20.008,-0.91839599609375,-1.22857666015625,0.392181396484375,0.03695894866756337,0.1726381214100367,None
301,20.058,-0.7113037109375,-1.0296630859375,0.0209808349609375,0.040935009050858624,0.11658707720729838,None
302,20.108,-0.3222503662109375,-0.65875244140625,-0.36004638671875,-0.4795981717942486,0.3944476982405406,None
303,20.158,-0.0483856201171875,-0.31402587890625,-0.579010009765625,-0.4626520990044934,0.3609216102123355,None
304,20.208,0.2337493896484375,-0.194183349609375,-0.489776611328125,-0.4694524790570965,0.36421853120699127,None
305,20.258,0.210357666015625,-0.26788330078125,-0.732025146484375,-0.5197012558996097,0.3865515238961917,None
306,20.307,0.4182281494140625,-0.0770721435546875,-0.2648162841796875,-0.5902357604582991,0.40248235825988016,None
307,20.357,0.3432159423828125,-0.09161376953125,-0.5043792724609375,-0.6892132452333141,0.43679846790719007,None
308,20.407,0.4266815185546875,-0.21685791015625,-0.4788055419921875,-0.8123298716792041,0.4855272139958553,None
309,20.457,0.8908538818359375,-0.051910400390625,-1.254119873046875,-0.9598658904525298,0.5223069467369682,None
310,20.766,-2.1832427978515625,-0.9553375244140625,0.1591339111328125,-0.9693781763473373,0.6151110471870195,None
311,20.835,0.268096923828125,-1.239532470703125,-2.322021484375,-0.8636101821390626,0.7392496207580299,Body
312,20.884,0.1208953857421875,-1.5031585693359375,-1.0596923828125,-0.8702024718704313,0.7403925188447313,None
313,20.934,0.676055908203125,-0.9689178466796875,-0.915679931640625,-0.8174509934786622,0.7383965450119389,None
314,20.984,0.4502716064453125,-0.704376220703125,-0.1962738037109375,-0.26842300166560873,-0.5243471786558606,None
315,21.034,0.3788604736328125,-0.4544677734375,-0.4268798828125,-0.6846376420536723,-0.5192780721286547,None
316,21.084,0.3229522705078125,-0.2092742919921875,-0.6772613525390625,-0.7268121245663672,-0.5089949699198499,None
317,21.134,0.2322540283203125,-0.42303466796875,-0.99981689453125,-0.7974634498857748,-0.5219691674312585,None
318,21.183,0.469879150390625,-0.4300384521484375,-0.971893310546875,-0.8991073198447607,-0.5337068764750326,None
319,21.233,1.0834503173828125,-0.3456878662109375,-1.0635833740234375,-0.9667939254929538,-0.54534265384348,None
320,21.283,1.89666748046875,-0.366485595703125,-0.88482666015625,-0.9973326888444182,-0.4579034270340307,None
321,21.564,-2.014556884765625,0.80615234375,0.5704193115234375,-0.9999615813672013,-0.463623054677105,None
322,21.613,-0.505645751953125,-0.5579833984375,-1.21490478515625,-0.9993244968684472,-0.3686261041254545,None
323,21.673,-0.3534698486328125,-1.420623779296875,-2.02655029296875,-0.9947932602025529,-0.27601882732517574,Body
324,21.723,0.3377838134765625,-0.7980499267578125,-1.09173583984375,-0.9940979285892128,-0.2947679938248824,None
325,21.773,0.5654449462890625,-0.2806854248046875,-1.7144622802734375,-0.9920038895598651,-0.370541099762618,None
326,21.823,0.6487274169921875,-0.393646240234375,-0.9658355712890625,-0.99651941047625,-0.42857469787130653,None
327,21.873,0.534210205078125,-0.2230377197265625,-0.898193359375,-0.9988965222589979,-0.49028684612567996,None
328,21.922,0.19512939453125,-0.396026611328125,-0.897705078125,-0.9993765920531182,-0.5240886671998357,None
329,21.972,0.334716796875,-0.54949951171875,-1.0157623291015625,-0.9994903069905777,-0.564140922310572,None
330,22.022,0.723724365234375,-0.6697998046875,-1.227264404296875,-0.9976870894300934,-0.5858238747990459,None
331,22.072,1.6954498291015625,-0.8509063720703125,-1.3787689208984375,-0.9881325025410241,-0.5922983640301479,None
332,22.371,-2.4547576904296875,-0.0863800048828125,-0.1645965576171875,-0.9895052597939151,-0.5930927146679381,None
333,22.431,-0.804901123046875,-1.2576446533203125,-2.1433563232421875,-0.9840983520672716,-0.5809719749138827,None
334,22.481,0.2867279052734375,-0.6155242919921875,-1.730712890625,-0.9790723447773223,-0.6238323767568432,Body
335,22.53,0.5559539794921875,-0.32989501953125,-1.3290557861328125,-0.9919886813299028,-0.6497810874591411,None
336,22.58,0.316192626953125,-0.4897918701171875,-0.8227081298828125,-0.989515952529167,-0.710882214247517,None
337,22.63,0.4663848876953125,0.136688232421875,-1.263275146484375,-0.9616022020563435,-0.7821225196564611,None
338,22.68,0.787567138671875,-0.0505523681640625,-1.686279296875,-0.9692115232850126,-0.8134030560946508,None
339,22.73,1.0086822509765625,-0.427520751953125,-1.1589202880859375,-0.9615614625191631,-0.8321552758495712,None
340,22.78,1.1487579345703125,-0.6206207275390625,-1.20782470703125,-0.951475375691489,-0.8359965250126263,None
341,22.83,1.826385498046875,-0.710968017578125,-1.2205810546875,-0.9363921976853224,-0.7880062595931551,None
342,22.997,-7.5845184326171875,1.6257476806640625,-3.4460296630859375,-0.9986171935356178,-0.6683852976906397,None
343,23.099,-2.374908447265625,-0.632171630859375,0.3788909912109375,-0.9989841608586328,-0.6258284950802359,None
344,23.149,-1.089996337890625,-1.4822845458984375,-1.582977294921875,-0.997108957649104,-0.5883182203791332,None
345,23.208,-0.018890380859375,-0.7422027587890625,-2.1239776611328125,-0.9972140543698106,-0.6124538281895672,Body
346,23.258,0.371246337890625,-0.32373046875,-0.7859649658203125,-0.9999998875001208,-0.6570590032106136,None
347,23.308,0.4033966064453125,-0.1234283447265625,-0.6338043212890625,-0.9999079255449994,-0.6974232810799258,None
348,23.358,0.40032958984375,-0.1275787353515625,-0.72882080078125,-0.9994087371087289,-0.7259264042472207,None
349,23.408,0.4173583984375,-0.1778564453125,-1.2326812744140625,-0.999582505939399,-0.746281863087944,None
350,23.458,0.689239501953125,-0.0718231201171875,-1.03900146484375,-0.9989730917677766,-0.7810029386069605,None
351,23.507,1.1039886474609375,-0.367828369140625,-0.5437469482421875,-0.9961692555913696,-0.787718559680001,None
352,23.557,1.4051971435546875,-0.83404541015625,-1.541839599609375,-0.9690753867399771,-0.79438461284067,None
353,23.875,-1.9743804931640625,-0.446075439453125,-0.417755126953125,-0.9532612966273811,-0.7395814697998875,None
354,23.925,-0.948486328125,-1.75408935546875,-2.0363616943359375,-0.9218894822825285,-0.7377700846521998,None
355,23.975,0.3863525390625,-0.592193603515625,-2.29315185546875,-0.8829016910299345,-0.7359533717363684,Body
356,24.025,0.617401123046875,-0.453338623046875,-0.9872894287109375,-0.9211948039670066,-0.7245151621370486,None
357,24.074,0.165740966796875,-0.647186279296875,-0.8762054443359375,-0.9521740358724381,-0.7128738540625975,None
358,24.124,0.3258514404296875,-0.4788360595703125,-0.9510650634765625,-0.9483777310277913,-0.7139485786934932,None
359,24.174,0.4718780517578125,-0.173858642578125,-1.1237030029296875,-0.9363640167344096,-0.7375367973014584,None
360,24.224,0.5288848876953125,-0.2659454345703125,-0.9714508056640625,-0.9285640065865274,-0.7446097849084534,None
361,24.274,0.7388763427734375,-0.6304779052734375,-1.2646484375,-0.9006908511347808,-0.7644416115292479,None
362,24.324,1.2424468994140625,-0.5091705322265625,-1.429290771484375,-0.8614884653525763,-0.7744803133039074,None
363,24.373,1.9059295654296875,-0.6746978759765625,-1.1755523681640625,-0.7959853219273705,-0.7322878001869334,None
364,24.664,-2.019683837890625,-0.5443572998046875,0.3492889404296875,-0.7960138785738596,-0.7343204087281598,None
365,24.714,-0.27056884765625,-1.0411376953125,-2.2657928466796875,-0.7312663103178609,-0.7264705511735705,None
366,24.772,0.3505096435546875,-0.6301727294921875,-2.026702880859375,-0.7598859349327841,-0.7717025632311112,Body
367,24.822,0.6028900146484375,-0.284149169921875,-1.1002655029296875,-0.7851448589574416,-0.8140919367245023,None
368,24.872,0.7161865234375,-0.06365966796875,-0.9787139892578125,-0.800921638909022,-0.8411663431013577,None
369,24.922,0.54266357421875,-0.0074920654296875,-0.884552001953125,-0.8161610638208118,-0.8662810092029936,None
370,24.972,0.335052490234375,-0.138214111328125,-0.5930938720703125,-0.8189353578304437,-0.871572867087267,None
371,25.021,0.264862060546875,-0.0313262939453125,-1.2465972900390625,-0.842427593761199,-0.8584156510437635,None
372,25.071,0.3093414306640625,-0.2942352294921875,-0.8275909423828125,-0.8651673187895919,-0.8358000377920889,None
373,25.121,0.51800537109375,-0.8269195556640625,-1.276519775390625,-0.8862542761724215,-0.8116689717678812,None
374,25.171,1.4776763916015625,-0.7884063720703125,-1.6097869873046875,-0.8095849284742526,-0.8111874171462451,None
375,25.491,-1.992706298828125,0.198638916015625,-0.620452880859375,-0.7808461301369136,-0.7790046584816287,None
376,25.541,-0.8062286376953125,-0.9556732177734375,-1.80126953125,-0.7386179869404107,-0.7547989368743989,Body
377,25.619,0.4235687255859375,-0.28948974609375,-2.0816192626953125,-0.7401610462609168,-0.7999256741854363,None
378,25.669,0.4700775146484375,-0.585479736328125,-1.7567291259765625,-0.7417002177857946,-0.8409276413283974,None
379,25.719,0.7759857177734375,-0.396453857421875,-1.8220977783203125,-0.77981958278265,-0.8829831650268298,None
380,25.769,0.72442626953125,-0.259918212890625,-1.2308197021484375,-0.8266883967654531,-0.9056725511771235,None
381,25.819,0.748382568359375,0.0146331787109375,-0.2355804443359375,-0.8653662935986879,-0.9125429365903496,None
382,25.869,0.4643096923828125,-0.068023681640625,-0.1327056884765625,-0.847300458448934,-0.9170265600999792,None
383,25.919,0.9260711669921875,-0.205902099609375,-0.874755859375,-0.7681743941402361,-0.9078681667811428,None
384,26.267,-2.5499114990234375,0.1825714111328125,1.0672760009765625,-0.7165101853768812,-0.9082101913957503,None
385,26.317,-0.7022552490234375,-0.895904541015625,-2.104156494140625,-0.6605780090978509,-0.9085516105143168,None
386,26.378,0.3302154541015625,-0.587677001953125,-2.1716461181640625,-0.6849498355220431,-0.9104631939519707,Body
387,26.428,0.4721832275390625,-0.4953460693359375,-1.13836669921875,-0.735561881736277,-0.9107377459863063,None
388,26.478,0.3704986572265625,-0.4850616455078125,-0.9744873046875,-0.7413609400519159,-0.9124572684879664,None
389,26.528,0.3940582275390625,-0.388336181640625,-1.0743560791015625,-0.7336131705576493,-0.908786769323699,None
390,26.578,0.3463134765625,-0.4954376220703125,-1.058807373046875,-0.6740595819047223,-0.9240103248809114,None
391,26.628,0.544403076171875,-0.1953887939453125,-1.2374114990234375,-0.5942041433648687,-0.9496743512684325,None
392,26.677,0.5973358154296875,-0.3120269775390625,-0.8340301513671875,-0.5497508209695809,-0.9653731900949907,None
393,26.727,0.800750732421875,-0.4379119873046875,-0.7441864013671875,-0.4654114198617959,-0.9780123448515726,None
394,26.777,1.6606903076171875,-0.2194061279296875,-1.7470703125,-0.33898321350342825,-0.9810411763556172,None
395,26.999,-6.3029327392578125,3.1045074462890625,-6.258758544921875,-0.5687287233762206,-0.9442520176256408,None
396,27.096,-2.724853515625,0.342864990234375,1.42559814453125,-0.6054087918262708,-0.9588607612565281,None
397,27.146,-0.3460693359375,-0.7317047119140625,-1.5197906494140625,-0.5530071753288357,-0.9581703851353199,None
398,27.226,0.4910125732421875,-0.361083984375,-2.0854644775390625,-0.6173901574496079,-0.9596992102843852,Body
399,27.276,0.3135833740234375,-0.6981658935546875,-0.9222869873046875,-0.7014617195525383,-0.9589031022867746,None
400,27.325,0.2290802001953125,-0.6242218017578125,-0.883331298828125,-0.6816104799229201,-0.959713780853345,None
401,27.375,0.48809814453125,-0.2853546142578125,-1.2170257568359375,-0.6376230486491136,-0.9718364557220394,None
402,27.425,0.3980712890625,-0.1949462890625,-1.4644317626953125,-0.6121657248410752,-0.9770334484379369,None
403,27.475,0.509185791015625,-0.286346435546875,-0.7873382568359375,-0.5816012489735205,-0.9807780989772533,None
404,27.525,0.465728759765625,-0.3137664794921875,-0.71929931640625,-0.5277050626028873,-0.985706122804397,None
405,27.575,0.7614593505859375,-0.393035888671875,-1.0024261474609375,-0.4262845465106843,-0.9877146227440514,None
406,27.624,1.4018402099609375,-0.63525390625,-1.857208251953125,-0.36598250385798614,-0.9792951608409024,None
407,27.674,1.739654541015625,-0.9678955078125,-1.798919677734375,-0.2927733833030518,-0.9555004306287959,None
408,27.943,-2.1422576904296875,1.1495208740234375,1.3329010009765625,-0.17953757008831941,-0.9662806376620557,None
409,28.053,0.0839080810546875,-0.837890625,-2.1521453857421875,-0.13594719761176846,-0.9651035116473006,Body
410,28.103,0.5303497314453125,-0.340728759765625,-1.0102386474609375,-0.14864327272336383,-0.9768029377331068,None
411,28.153,0.435272216796875,-0.28125,-0.933380126953125,-0.16898232883964953,-0.98505571482305,None
412,28.203,0.44415283203125,-0.2480621337890625,-0.939605712890625,-0.1897397315168261,-0.9915080819373541,None
413,28.252,0.2418670654296875,-0.205780029296875,-1.481689453125,-0.12476350376422726,-0.9959870543830787,None
414,28.302,0.444366455078125,-0.2490997314453125,-1.00909423828125,-0.09875684324410795,-0.9992645273393267,None
415,28.352,0.425384521484375,-0.1948089599609375,-0.94903564453125,-0.05681096860692438,-0.9999920473804463,None
416,28.402,0.691864013671875,-0.2797088623046875,-0.822235107421875,0.002204223289819152,-0.9994789427251554,None
417,28.452,0.8706207275390625,-0.5223388671875,-1.12457275390625,0.07201854771222665,-0.9997481913896977,None
418,28.502,1.570037841796875,-0.4071807861328125,-1.8665618896484375,0.09903074050692391,-0.9999993641465375,None
419,28.761,-2.1522979736328125,-0.1115875244140625,0.8078460693359375,0.12665337225491086,-0.9984733396888443,None
420,28.811,-0.712615966796875,-1.10040283203125,-0.5995635986328125,0.1977794900962661,-0.9957412847269033,None
421,28.9,0.0672607421875,-0.265838623046875,-2.197662353515625,0.2626920127389154,-0.9991348277252771,Body
422,28.95,0.3213348388671875,-0.3520660400390625,-1.1255645751953125,0.25032889986066115,-0.999917957326366,None
423,29,0.20428466796875,-0.4174652099609375,-1.1367034912109375,0.24544633393820864,-0.9999058940256998,None
424,29.05,0.1972198486328125,-0.4699554443359375,-0.754852294921875,-0.8489205882748578,-0.21653486099694177,None
425,29.1,0.454498291015625,-0.2100830078125,-1.1590576171875,-0.8657503326795168,-0.2772967130063707,None
426,29.15,0.59442138671875,-0.1746063232421875,-1.2073822021484375,-0.8809241823993584,-0.3262400267970776,None
427,29.199,0.654815673828125,-0.311309814453125,-1.0081939697265625,-0.8760322014371774,-0.36690733098173267,None
428,29.249,0.8421478271484375,-0.5272216796875,-1.2821044921875,-0.8938675525188841,-0.39372652355990934,None
429,29.299,1.5452880859375,-0.687042236328125,-1.4399871826171875,-0.9289706368767178,-0.3972661290398511,None
430,29.607,-2.1704254150390625,-0.4667510986328125,1.1191864013671875,-0.9755415952277632,-0.3244832394754821,None
431,29.718,0.6584625244140625,-1.077972412109375,-2.191253662109375,-0.9580569793458189,-0.29596040637912613,Body
432,29.768,0.5543060302734375,-1.667877197265625,-1.6514892578125,-0.8716336045891605,-0.26275396296267933,None
433,29.817,0.466278076171875,-1.6482086181640625,-0.62646484375,-0.6027808434677248,-0.19974100905329442,None
434,29.867,0.205963134765625,-2.3196563720703125,-0.0074462890625,-0.35068188859007793,-0.2842661803746073,None
435,29.917,0.9613800048828125,-0.7957611083984375,-0.423583984375,-0.23766660953657,-0.3873449677457389,None
436,29.967,0.821441650390625,-0.060455322265625,-0.1206817626953125,0.03213311633271696,-0.4662229206013352,None
437,30.017,0.769134521484375,0.4538116455078125,0.1702117919921875,0.1904304599997114,-0.4732656771735005,None
438,30.067,0.4303436279296875,0.4389190673828125,-0.2474212646484375,0.29087907577837896,-0.4134035132219308,None
439,30.117,0.2523651123046875,0.246795654296875,0.4513092041015625,0.3958031877437057,-0.30925626981465526,None
440,30.166,0.102325439453125,0.2064666748046875,0.4051361083984375,0.3305917275711222,-0.16141623543573572,None
441,30.216,-0.4522552490234375,-0.7959136962890625,-0.0597686767578125,-0.07488357535733017,0.4929858318097646,None
442,30.266,-0.2113494873046875,-0.64837646484375,0.3141937255859375,0.43608175847764774,0.281479651181788,None
443,30.316,0.646392822265625,0.494232177734375,-0.270660400390625,-0.09661430221757596,0.4450340592881861,None
444,30.366,1.2592010498046875,0.51763916015625,-0.9411163330078125,-0.35898774927685506,0.6639391063758334,None
445,30.685,-2.7286376953125,0.1732330322265625,1.2232666015625,-0.3029304777342636,0.7370930534223669,None
446,30.884,0.2804412841796875,-2.118865966796875,-0.0384368896484375,-0.0023154873138386206,0.7976766820728683,Body
447,30.934,0.410186767578125,-1.5388946533203125,0.5213775634765625,0.29180648182208413,0.8154272199216509,None
448,30.984,0.7344818115234375,-0.9739532470703125,0.7454681396484375,0.4863220826384094,0.8097538319689918,None
449,31.034,0.515350341796875,-0.583526611328125,0.0997467041015625,0.16849376794713586,-0.656596518366172,None
450,31.083,0.5564117431640625,-0.3489532470703125,0.13690185546875,0.36522034743748116,-0.829353349125634,None
451,31.133,0.64447021484375,-0.2242889404296875,0.1480255126953125,0.4359302049795032,-0.8298131938277962,None
452,31.183,0.7891693115234375,-0.5016632080078125,-0.0626220703125,-0.12386757011644843,-0.8420347835298602,None
453,31.233,1.058624267578125,-0.7160186767578125,-0.0252685546875,-0.08249461785818783,-0.8429872135003253,None
454,31.283,1.3361663818359375,-0.748931884765625,0.2295684814453125,-0.13535738348273096,-0.8740334751273284,None
455,31.333,0.927764892578125,-0.573455810546875,0.1498565673828125,-0.1986547940448483,-0.9182079002965714,None
456,31.383,0.5062408447265625,-0.6284332275390625,0.2741546630859375,0.3998577760586908,-0.5939892202026767,None
457,31.432,0.4786224365234375,-0.547882080078125,0.152923583984375,0.2688417962851449,-0.6438311144129878,None
458,31.482,0.0839080810546875,-0.6935577392578125,-0.144622802734375,-0.2041322843938552,-0.11761264109778702,None
459,31.532,0.2485809326171875,-0.98211669921875,0.4431304931640625,-0.3001873839910187,-0.17370438211817527,None
460,31.582,-0.4373779296875,-1.608978271484375,1.0321502685546875,-0.3692545135463417,-0.19010010976367037,None
461,31.632,-0.221832275390625,-1.4457550048828125,1.8479461669921875,-0.40471754410575067,-0.24647885911074016,None
462,31.682,0.1254119873046875,-1.0165863037109375,1.59136962890625,-0.4291845163410922,-0.2983341372428347,None
463,31.731,0.066864013671875,-1.0971527099609375,0.87921142578125,-0.37507947656876295,-0.30515884324572684,None
464,31.781,-0.0826416015625,-1.13397216796875,0.5774078369140625,-0.2420369306881435,-0.2641529795639449,None
465,31.831,0.0860443115234375,-0.9499969482421875,0.105621337890625,0.11049985769673037,-0.08965606835517304,None
466,31.881,0.162017822265625,-0.6279144287109375,-0.0634918212890625,-0.10060241624878309,-0.24865346962710178,None
467,31.931,0.5215301513671875,-0.2121429443359375,0.1265411376953125,0.013738214628956039,-0.1701243346761499,None
468,31.981,0.4560394287109375,-0.0502777099609375,0.056396484375,0.04254847062198595,-0.024907032600485865,None
469,32.031,0.3207855224609375,-0.013031005859375,0.0794677734375,0.02264746021790808,0.16289967046394854,None
470,32.08,0.229644775390625,0.1301727294921875,-0.18548583984375,-0.10493706024173402,0.3723812572172906,None
471,32.13,0.1770782470703125,-0.0921173095703125,-0.672332763671875,-0.3132425513470822,0.5673411352559683,None
472,32.18,0.2201995849609375,-0.069915771484375,-1.6056060791015625,-0.6247997668387717,0.7185719316636624,None
473,32.23,0.1576690673828125,-0.7889556884765625,-0.9741363525390625,-0.8323621689088931,0.8326759102603307,None
474,32.569,-2.0146942138671875,-0.1811676025390625,0.8669281005859375,-0.8330433077216471,0.8651678570751387,None
475,32.647,0.416046142578125,-1.1808013916015625,-2.253814697265625,-0.8937289616492792,0.8890879860327766,Body
476,32.697,0.5800933837890625,-1.1893768310546875,-1.2040557861328125,-0.8951509883775723,0.881994672142631,None
477,32.747,0.6776275634765625,-0.88140869140625,-0.9522247314453125,-0.9068023898684877,0.8696991990864035,None
478,32.797,0.4960479736328125,-0.7290496826171875,-0.77130126953125,-0.8882708358432632,0.8528316493108752,None
479,32.847,0.5343017578125,-0.523651123046875,-0.65325927734375,-0.7802603377218118,-0.5379625271401106,None
480,32.897,0.6883544921875,-0.4842071533203125,-0.8400726318359375,-0.7537243399389838,-0.5602495441104401,None
481,32.946,0.5063629150390625,-0.6589813232421875,-0.9479522705078125,-0.7343998875049256,-0.6013599535347743,None
482,32.996,0.82269287109375,-0.6086883544921875,-1.142822265625,-0.7144608766209029,-0.6409361535516416,None
483,33.046,1.038055419921875,-0.7132110595703125,-1.657318115234375,-0.617293679505999,-0.681734169086141,None
484,33.096,1.1609344482421875,-0.893218994140625,-1.9106292724609375,-0.37641122405141497,-0.690272101663951,None
485,33.146,0.525390625,-1.044097900390625,-1.1752166748046875,-0.10757511570896579,-0.7289893746160493,None
486,33.196,0.150634765625,-0.6299285888671875,-0.6778411865234375,-0.7325215113448761,-0.1606712990344442,None
487,33.245,-0.2649993896484375,-0.2961883544921875,-0.069549560546875,-0.22859763437330774,0.6567980683051494,None
488,33.295,-0.1760711669921875,-0.095977783203125,0.3509063720703125,-0.14479383997817383,0.5767914881584948,None
489,33.345,-0.2312774658203125,-0.200592041015625,0.314300537109375,-0.12210840267781577,0.5092141014250702,None
490,33.395,-0.1531219482421875,-0.52972412109375,0.878753662109375,0.8564282477634998,0.14759731190729927,None
491,33.445,-0.50244140625,-1.1851806640625,0.867828369140625,0.8108323449605525,0.11583075801302738,None
492,33.495,-0.51531982421875,-1.3583831787109375,1.2627716064453125,0.7374331639354079,0.06517652487370115,None
493,33.544,-0.31939697265625,-1.212890625,1.13055419921875,0.6404494768504375,0.031587531100855326,None
494,33.594,-0.3340606689453125,-1.0603790283203125,0.635467529296875,0.5114157734447187,0.04939229158589845,None
495,33.644,-0.4690093994140625,-1.166717529296875,0.0195770263671875,0.4094494483613391,0.08420919274530138,None
496,33.694,-0.4207305908203125,-1.053802490234375,-1.1615142822265625,0.4181755637509287,0.09528047216814219,None
497,33.744,-0.125885009765625,-0.9524383544921875,-0.656280517578125,0.4268632576465526,0.10633997792632488,None
498,33.794,0.1371307373046875,-0.6909027099609375,-0.7959442138671875,-0.7551796500951615,-0.1290200966778294,None
499,33.844,0.0866851806640625,-0.7733001708984375,-0.3623504638671875,-0.4243052356598092,-0.10098769929142702,None
500,33.893,0.2065887451171875,-0.728668212890625,0.046112060546875,0.06315632241274372,-0.2722606854787423,None
501,33.943,0.2813568115234375,-0.601837158203125,0.111297607421875,0.1818464257519893,-0.4176821070882772,None
502,33.993,0.403167724609375,-0.4704132080078125,-0.1238861083984375,-0.2546723982292919,-0.6381180972621517,None
503,34.043,0.5597076416015625,-0.251129150390625,-0.2122955322265625,-0.38747938100049345,-0.5661751483129063,None
504,34.093,0.369537353515625,-0.35845947265625,-0.449676513671875,-0.781954870662196,-0.5406037257007983,None
505,34.143,0.22674560546875,-0.621856689453125,-0.2277069091796875,-0.3438456950453545,-0.3239322931718248,None
506,34.192,0.2768096923828125,-0.574188232421875,-0.73760986328125,-0.7890972453890531,-0.2839433650375865,None
507,34.242,0.1690521240234375,-0.592010498046875,-1.0516815185546875,-0.9182170091176226,-0.2326668934952349,None
508,34.292,0.792266845703125,-0.32855224609375,-1.0829925537109375,-0.9773642699077548,-0.13519552318258643,None
509,34.342,1.6101837158203125,-0.215118408203125,-0.9183197021484375,-0.9990510371876878,0.0206589785561206,None
510,34.622,-1.89996337890625,-0.4610748291015625,-0.0993194580078125,-0.9997195721990477,0.041701014260754746,Body
511,34.672,-1.0359649658203125,-0.9683685302734375,-1.362518310546875,-0.9990059589887235,0.03184995176729944,None
512,34.722,-0.258880615234375,-0.71392822265625,-1.5262603759765625,-0.9977278536369143,-0.02929808180808859,None
513,34.772,0.2259063720703125,-0.4941558837890625,-1.5867767333984375,-0.9979250942575861,-0.09255319371158115,None
514,34.822,0.287445068359375,-0.7019500732421875,-1.324493408203125,-0.9997631667270536,-0.11848347855979548,None
515,34.872,0.4198455810546875,-0.571014404296875,-0.7628173828125,-0.8005530905275907,-0.4032099639553345,None
516,34.921,0.5820770263671875,-0.418060302734375,-0.5901947021484375,-0.8066931840847951,-0.45276395474550474,None
517,34.971,0.5824127197265625,-0.420166015625,-0.80072021484375,-0.8126707820091589,-0.49492576766495217,None
518,35.021,0.617767333984375,-0.6631317138671875,-1.02484130859375,-0.7874943839537887,-0.548106026079296,None
519,35.071,0.58685302734375,-0.7152557373046875,-1.1727142333984375,-0.7995482155564363,-0.5959689591291678,None
520,35.121,0.5523223876953125,-0.5038299560546875,-1.3526458740234375,-0.796528490686558,-0.6584283589045565,None
521,35.171,0.5028076171875,-0.5214996337890625,-0.6649627685546875,-0.7868762827076968,-0.5113275573360676,None
522,35.22,0.4294281005859375,-0.62811279296875,-0.61822509765625,-0.7014749465650781,-0.4380240306531678,None
523,35.27,0.455108642578125,-0.8406219482421875,-0.6467742919921875,-0.6665994563207112,-0.4582903185406991,None
524,35.32,0.444244384765625,-0.9749603271484375,-0.8881988525390625,-0.6606950464063066,-0.47024088392844304,None
525,35.37,0.4786529541015625,-0.7921142578125,-0.845947265625,-0.6537232382880568,-0.4762784774730333,None
526,35.42,0.40191650390625,-0.43438720703125,-0.7584228515625,-0.6122484304580866,-0.46894463490750865,None
527,35.47,0.145416259765625,-0.4244842529296875,-0.458465576171875,-0.7337773578173239,-0.22668128919771824,None
528,35.52,-0.04400634765625,-0.48675537109375,-0.2749176025390625,-0.49177931231804356,0.07847685158897857,None
529,35.569,-0.0454254150390625,-0.5968475341796875,-0.378631591796875,-0.5356862188574084,0.06413535268355794,None
530,35.619,-0.330474853515625,-0.9080810546875,-0.437774658203125,-0.4342588323509102,0.311509410704886,None
531,35.669,-0.541778564453125,-1.4320526123046875,-0.131195068359375,-0.37750550818713713,0.3403209778318987,None
532,35.719,-0.38385009765625,-1.5281982421875,0.2963104248046875,-0.3185318805155307,0.32292572370396533,None
533,35.769,-0.44012451171875,-1.613006591796875,0.53326416015625,-0.24240107044511658,0.29816954991215805,None
534,35.819,-0.3428802490234375,-1.41943359375,0.65460205078125,-0.0920922373051214,0.25731987873521384,None
535,35.868,-0.16839599609375,-1.0823211669921875,0.4870452880859375,0.057734430976618914,0.21712417815051055,None
536,35.918,0.12469482421875,-0.590484619140625,0.371978759765625,0.5330104214534122,-0.1758903050897534,None
537,35.968,0.233795166015625,-0.3662109375,0.1882781982421875,0.4572349747239827,-0.4937408054465208,None
538,36.018,0.07171630859375,-0.4434814453125,0.427276611328125,0.6938273650913545,-0.11567382413603791,None
539,36.068,0.0836029052734375,-0.4205322265625,0.406158447265625,0.6947072213873832,-0.14155727963857945,None
540,36.118,0.143280029296875,-0.257171630859375,0.395263671875,0.8382010475152778,-0.2907181167241665,None
541,36.167,0.1045684814453125,0.0249481201171875,0.1553192138671875,0.7891909817730275,-0.17473717747782222,None
542,36.217,-0.1114044189453125,0.067474365234375,-0.5121307373046875,0.6564307383786407,-0.04390974632360018,None
543,36.267,0.47113037109375,0.248382568359375,-0.6702423095703125,0.44520877467513564,0.034389173211910526,None
544,36.317,0.1891937255859375,-0.082000732421875,-1.1664581298828125,0.13378970809623228,0.1853678394742488,None
545,36.367,1.2538909912109375,-1.09954833984375,-1.1206207275390625,-0.10129192100277461,0.2887274950264757,None
546,36.417,1.46453857421875,-1.428863525390625,-2.222625732421875,-0.37310132854783484,0.40138603386870075,None
547,36.706,-2.1411895751953125,-0.5874481201171875,-0.6457061767578125,-0.5296990128571267,0.48124516733789185,Body
548,36.795,-0.2454681396484375,-2.1229248046875,-1.2505035400390625,-0.5161779927721746,0.48072995573544036,None
549,36.845,0.5129241943359375,-0.710845947265625,-1.6869049072265625,-0.5132149531339244,0.4149729957677437,None
550,36.895,0.70928955078125,-0.4935302734375,-1.08544921875,-0.4550787907356169,0.3995002104742673,None
551,36.945,0.4790496826171875,-0.3909912109375,-0.5905609130859375,-0.46840327509276863,0.3538053649022804,None
552,36.995,0.6944732666015625,0.037628173828125,-0.5726165771484375,-0.513129410875633,0.2886795571717922,None
553,37.045,0.794769287109375,-0.0565643310546875,-0.7740936279296875,-0.5167081707843987,0.2868496159021022,None
554,37.095,0.4605865478515625,-0.57666015625,-0.8808135986328125,-0.5405947268300401,0.32108955860174404,None
555,37.144,0.798004150390625,-0.965423583984375,-1.17034912109375,-0.6814811562067196,0.36545803861062826,None
556,37.453,-2.2175140380859375,-0.2476654052734375,1.19256591796875,-0.6982029885752481,0.3543058633350151,None
557,37.563,0.3205108642578125,-0.835357666015625,-2.2204132080078125,-0.7229746861279137,0.30453273488954047,Body
558,37.613,0.321563720703125,-0.5734710693359375,-0.9698333740234375,-0.6799158044642385,0.2665473788124827,None
559,37.663,0.3702545166015625,-0.18450927734375,-0.84930419921875,-0.6393265216360289,0.19965226072545642,None
560,37.713,0.3419189453125,-0.074951171875,-0.9977264404296875,-0.6034097133744674,0.14333802277812727,None
561,37.762,0.3159332275390625,-0.1303863525390625,-1.1745147705078125,-0.5548537427374852,0.10185285142414004,None
562,37.812,0.51348876953125,-0.1502685546875,-0.6677398681640625,-0.505850267230825,0.07213347188773718,None
563,37.862,0.392822265625,-0.2337799072265625,-0.9373779296875,-0.47743982209191516,0.06382269055861821,None
564,37.912,0.3734588623046875,-0.529510498046875,-0.7052001953125,-0.7996676630048767,-0.3899600959134218,None
565,37.962,0.6572723388671875,-0.4737701416015625,-0.9732513427734375,-0.8299520297252729,-0.3750278073057631,None
566,38.012,1.3100433349609375,-0.4869537353515625,-1.3099212646484375,-0.8876885000027068,-0.3533461560273321,None
567,38.351,-2.2120361328125,-0.6881103515625,0.1488189697265625,-0.9378914880683881,-0.2761299898882862,None
568,38.45,0.1055145263671875,-0.777984619140625,-2.0894012451171875,-0.9413419862412364,-0.28273482197916194,Body
569,38.5,0.1861419677734375,-0.79095458984375,-1.3721771240234375,-0.9120800121601054,-0.29598497103428983,None
570,38.55,0.16607666015625,-0.684844970703125,-1.264739990234375,-0.8768848978309811,-0.31257897065277257,None
571,38.6,0.2220306396484375,-0.517913818359375,-1.311614990234375,-0.8702882149257636,-0.3366931978166905,None
572,38.65,0.5115203857421875,-0.2597808837890625,-0.775390625,-0.8618594269562725,-0.3666194170578603,None
573,38.699,0.59466552734375,-0.0546417236328125,-0.619598388671875,-0.8676202317411108,-0.3860720950158073,None
574,38.749,0.688690185546875,-0.228485107421875,-0.780792236328125,-0.8932737998285569,-0.38483428021376587,None
575,38.799,0.8701629638671875,-0.4119415283203125,-0.7809600830078125,-0.9203317130555114,-0.3962367675471423,None
576,38.849,0.5866851806640625,-0.8896331787109375,-1.8750457763671875,-0.9703935973285777,-0.42030803545865664,None
577,38.899,1.9293365478515625,-0.83148193359375,-2.22589111328125,-0.9999935117541287,-0.42223821841753256,None
578,39.006,1.3549041748046875,-0.3159332275390625,-3.4361114501953125,-0.9983766434142337,-0.23546892412589895,None
579,39.198,-2.54931640625,0.0086212158203125,1.605133056640625,-0.9984766933900404,-0.2110852632572098,None
580,39.318,0.2566070556640625,-0.9571380615234375,-2.1015625,-0.9964018282263994,-0.18033795961091237,Body
581,39.367,0.4925689697265625,-0.994873046875,-1.49151611328125,-0.9914426667469994,-0.16380058484059276,None
582,39.417,0.7354888916015625,-0.759063720703125,-1.3207244873046875,-0.9858667249327776,-0.20813099985091307,None
583,39.467,0.5762481689453125,-0.5643310546875,-1.1360626220703125,-0.9750383599587746,-0.24820871779113024,None
584,39.517,0.51416015625,-0.3912353515625,-0.4047088623046875,-0.7189734752964542,-0.6744193165046207,None
585,39.567,0.3227386474609375,-0.154144287109375,-0.116943359375,-0.6837084706788532,-0.6827657351994599,None
586,39.617,0.16424560546875,-0.201629638671875,-0.4228363037109375,-0.6732251498923887,-0.6810459273948544,None
587,39.666,0.1035308837890625,-0.38934326171875,-0.789642333984375,-0.6957164911494687,-0.6708901983993604,None
588,39.716,0.558563232421875,-0.582183837890625,-1.1188812255859375,-0.7607066488279393,-0.6682887989969405,None
589,39.766,0.795440673828125,-1.1585235595703125,-1.768707275390625,-0.8479195482775099,-0.6490251839815492,None
590,40.135,-2.235565185546875,-0.447174072265625,-0.754791259765625,-0.9262051793972207,-0.608993278548766,None
591,40.235,0.2976226806640625,-0.7217254638671875,-2.0024566650390625,-0.9306613089779067,-0.6234334001009779,Body
592,40.284,0.3128509521484375,-0.858642578125,-1.281646728515625,-0.9029416479649703,-0.6531742186415862,None
593,40.334,0.34637451171875,-0.6072540283203125,-0.9453277587890625,-0.9160627512300812,-0.7361705510757797,None
594,40.384,0.8141021728515625,0.0051116943359375,-1.3339996337890625,-0.9225873065652145,-0.8068503733827409,None
595,40.434,0.290191650390625,-0.0922698974609375,-0.5050201416015625,-0.9254007333408416,-0.8560293871360336,None
596,40.484,0.294830322265625,0.2713165283203125,-1.5389556884765625,-0.9286806593525387,-0.8932186321875331,None
597,40.534,0.4142608642578125,0.1856842041015625,-0.729156494140625,-0.9224774794878934,-0.9088378042310539,None
598,40.584,0.9536285400390625,0.266693115234375,-0.763671875,-0.9335555450346052,-0.9186577733335717,None
599,40.633,1.2472686767578125,-0.0415802001953125,-1.5349578857421875,-0.950711084473145,-0.9123727898836477,None
600,41.021,-2.217620849609375,-0.024627685546875,0.601715087890625,-0.9789968285569198,-0.9025408816329158,None
601,41.152,0.251861572265625,-0.5771636962890625,-2.1301116943359375,-0.9788842558182778,-0.9072282567110045,Body
602,41.202,0.3328704833984375,-0.64971923828125,-1.1192474365234375,-0.9590839279912032,-0.9166483540252579,None
603,41.251,0.22442626953125,-0.528228759765625,-1.4146728515625,-0.9577339762044352,-0.9322168517200212,None
604,41.301,0.4971466064453125,-0.40570068359375,-1.6003875732421875,-0.9609555222111645,-0.953100223632886,None
605,41.351,0.303375244140625,-0.4074249267578125,-1.22509765625,-0.9468672150845101,-0.9672667634805423,None
606,41.401,0.306427001953125,-0.2822113037109375,-0.9283447265625,-0.9449567041513653,-0.9772087760788982,None
607,41.451,0.3564910888671875,-0.306121826171875,-0.8726348876953125,-0.9366928945879561,-0.9821248376019531,None
608,41.501,0.25830078125,-0.47113037109375,-0.8734130859375,-0.9276031898205535,-0.9807393899771379,None
609,41.55,0.2186126708984375,-0.783050537109375,-0.7414398193359375,-0.9478997177311452,-0.9718573612133032,None
610,41.6,0.8790130615234375,-0.69525146484375,-1.23809814453125,-0.9903482461290344,-0.9665094624565514,None
611,41.899,-2.073150634765625,-0.2563018798828125,0.143218994140625,-0.999484698017927,-0.9460176908050085,None
612,41.989,0.252685546875,-0.8883819580078125,-2.0660552978515625,-0.9993831419020557,-0.9433593338549261,Body
613,42.039,0.611724853515625,-0.827301025390625,-0.949798583984375,-0.9961547402707738,-0.9514921006414978,None
614,42.089,0.7599639892578125,-0.3049163818359375,-1.3457794189453125,-0.9985956743122879,-0.9659242001406663,None
615,42.139,0.5259246826171875,-0.503631591796875,-1.019775390625,-0.985402349506864,-0.9598772600345213,None
616,42.188,0.288665771484375,-0.867584228515625,-1.223480224609375,-0.970944712943302,-0.9557301085840759,Body
617,42.238,0.3953857421875,-0.61138916015625,-1.115020751953125,-0.9578566960348647,-0.9648644528439925,None
618,42.288,0.61529541015625,-0.6393280029296875,-0.5617828369140625,-0.6600808862475147,-0.5858817335036722,None
619,42.338,0.5605316162109375,-0.4514007568359375,-0.9801483154296875,-0.6881880022221091,-0.642179705579436,None
620,42.388,0.459930419921875,-0.5382232666015625,-1.0905303955078125,-0.6814439172150747,-0.683078666924461,None
621,42.438,0.2562713623046875,-0.6982574462890625,-0.9441986083984375,-0.6917173464730451,-0.7191488391259291,None
622,42.488,0.1927032470703125,-0.6947174072265625,-0.7731781005859375,-0.7438406195341463,-0.18228521019109825,None
623,42.537,0.1169891357421875,-0.6560211181640625,-0.66558837890625,-0.7122069353180606,-0.12421370346025329,None
624,42.587,0.223876953125,-0.552032470703125,-0.82275390625,-0.830402324492048,-0.22040164915064178,None
625,42.637,0.1996612548828125,-0.55938720703125,-0.700164794921875,-0.7812739567546946,-0.21745910018661344,None
626,42.687,0.199920654296875,-0.602142333984375,-0.8009796142578125,-0.7993252312140902,-0.19565192296579598,None
627,42.737,0.072296142578125,-0.7135772705078125,-0.8951873779296875,-0.8070017934646474,-0.17646928075067211,None
628,42.787,-0.007843017578125,-0.6458740234375,-1.0645904541015625,-0.810413574865413,-0.16711926579772352,None
629,42.836,-0.03936767578125,-0.6167449951171875,-0.8913726806640625,-0.8223472354614266,0.036295221127663264,None
630,42.886,0.0381622314453125,-0.569580078125,-0.6548004150390625,-0.7544980136754633,-0.043930226874079714,None
631,42.936,0.0083770751953125,-0.619598388671875,-0.55828857421875,-0.6693952202958698,-0.010043714867545593,None
632,42.986,0.0192108154296875,-0.6838226318359375,-0.58099365234375,-0.6474830440060769,-0.0214044120667671,None
633,43.036,0.054168701171875,-0.6992034912109375,-0.64459228515625,-0.6778108107980578,-0.056868061372343764,None
634,43.086,0.05181884765625,-0.6424102783203125,-0.8563690185546875,-0.7999401319952602,-0.04834773272754544,None
635,43.135,0.187774658203125,-0.6621246337890625,-0.675506591796875,-0.7141450969812121,-0.19471560460682644,None
636,43.185,0.4370269775390625,-0.520538330078125,-1.2434844970703125,-0.654113300297673,-0.16946235249030614,None
637,43.235,0.28582763671875,-0.93603515625,-1.2737579345703125,-0.4138647967987429,-0.09410358193878533,None
638,43.285,0.00897216796875,-1.20562744140625,-0.6927337646484375,-0.11712230750685629,-0.05871096019740963,None
639,43.335,-0.11798095703125,-0.9414215087890625,-0.0811614990234375,-0.08589304037186565,0.12389696627022641,None
640,43.385,-0.133209228515625,-0.7174224853515625,0.65887451171875,0.6764145379666103,0.13549427643450798,None
641,43.435,0.042724609375,-0.49267578125,0.7254180908203125,0.8272490413098886,-0.048664372598865455,None
642,43.484,0.101776123046875,-0.38739013671875,0.4095458984375,0.7264844859681604,-0.1776662115585639,None
643,43.534,0.152191162109375,-0.3824615478515625,0.3443450927734375,0.6691039586367952,-0.283585318635096,None
644,43.584,0.00579833984375,-0.510528564453125,0.3525848388671875,0.5682747746701425,-0.009345003031769043,None
645,43.634,-0.0647125244140625,-0.660858154296875,0.6131591796875,0.6801562992319589,0.0715991352872536,None
646,43.684,-0.2858734130859375,-1.0226898193359375,0.793121337890625,0.6495260529615403,0.0466968486435229,None
647,43.734,-0.6198272705078125,-1.23187255859375,1.059844970703125,0.6557110150105417,0.024474928885597845,None
648,43.783,-0.8003997802734375,-1.2485809326171875,1.516143798828125,0.6878886619775068,-0.01786914578529846,None
649,43.833,-0.509796142578125,-0.8778839111328125,1.2552032470703125,0.6833632094891509,-0.07655611907586317,None
650,43.883,-0.330535888671875,-0.7338104248046875,0.6563720703125,0.6666847649441363,0.3182711473226102,None
651,43.933,-0.05084228515625,-0.575408935546875,0.2753448486328125,0.43164593189563016,0.07945123860559426,None
652,43.983,0.0564422607421875,-0.45318603515625,0.05340576171875,0.11703525795475184,-0.12275409875567801,None
653,44.033,0.3050689697265625,-0.394287109375,0.0117950439453125,0.029901484270544718,-0.6117692264931558,None
654,44.082,0.0716400146484375,-0.383880615234375,-0.1544342041015625,-0.37322741783965724,-0.1705973152294123,None
655,44.132,0.0732574462890625,-0.389556884765625,-0.1669464111328125,-0.3939062630553024,-0.17032363654789107,None
656,44.182,0.0402374267578125,-0.287994384765625,-0.2089080810546875,-0.5871741718504566,-0.11237821181339412,None
657,44.232,0.1641845703125,-0.3931732177734375,-0.379180908203125,-0.6941826134911231,-0.2878571469677092,None
658,44.282,0.0711517333984375,-0.4415435791015625,-0.603485107421875,-0.8070500115645226,-0.09472446898083825,None
659,44.332,0.433380126953125,-0.517120361328125,-1.328582763671875,-0.9770355866886954,-0.015756087338545565,None
660,44.382,2.0094451904296875,-0.100341796875,-1.66619873046875,-0.9864722416706403,0.009839196038728407,None
661,44.701,-2.086212158203125,0.019744873046875,-0.65570068359375,-0.9691598432963072,0.08900560202779825,None
662,44.809,-0.027496337890625,-0.8224029541015625,-1.95147705078125,-0.9662307291761927,0.08550265682628493,Body
663,44.859,0.2646942138671875,-0.5782318115234375,-1.6739654541015625,-0.9817548340068647,0.0183200350617131,None
664,44.909,0.2808380126953125,-0.6693267822265625,-1.23046875,-0.9933342330653887,-0.05107124481309398,None
665,44.958,0.1864166259765625,-0.7379608154296875,-1.08905029296875,-0.9981044705553699,-0.14404671549758868,None
666,45.008,0.3209228515625,-0.5859222412109375,-1.20855712890625,-0.9999910102111181,-0.21276704607307917,None
667,45.058,0.2351531982421875,-0.4260406494140625,-0.8545074462890625,-0.9976832247909562,-0.27643708385378696,None
668,45.108,0.2895660400390625,-0.2219696044921875,-0.459625244140625,-0.9952062541388461,-0.31794435871030124,None
669,45.158,0.207427978515625,-0.189727783203125,-0.4146575927734375,-0.9982733311796406,-0.3468379041756781,None
670,45.208,-0.0110931396484375,-0.403717041015625,-0.5359954833984375,-0.7987676597079795,0.016529300932181752,None
671,45.258,1.1358489990234375,0.0100250244140625,-0.42437744140625,-0.8658283180336003,-0.0522660787146748,None
672,45.307,1.6499481201171875,0.0838470458984375,-0.931915283203125,-0.9537381630123141,0.006500274749406439,None
673,45.618,-2.6116180419921875,0.375946044921875,0.7599945068359375,-0.9811667809018808,0.04063133758194046,None
674,45.737,0.3129425048828125,-1.007293701171875,-2.0222930908203125,-0.9676380046630404,0.049690543808994105,Body
675,45.787,0.526519775390625,-1.1315155029296875,-1.2877960205078125,-0.9090948227880606,0.06550383091423205,None
676,45.837,0.2877044677734375,-1.1958465576171875,-0.7478485107421875,-0.8123115674562721,0.11333549959439781,None
677,45.887,0.396087646484375,-1.0159454345703125,-0.606109619140625,-0.7123564468716609,0.14301019439254725,None
678,45.937,0.43035888671875,-0.6253509521484375,-0.6227569580078125,-0.7056356480069444,-0.438298516990638,None
679,45.986,0.4202117919921875,-0.5308990478515625,-0.356658935546875,-0.5576477099632874,-0.5491030470994324,None
680,46.036,0.431396484375,-0.62127685546875,-0.4863739013671875,-0.6164318380039585,-0.4797301306513645,None
681,46.086,0.54718017578125,-0.7773284912109375,-0.72064208984375,-0.6453037223364735,-0.4816959111500037,None
682,46.136,0.5081329345703125,-1.499603271484375,-0.853729248046875,-0.6610417470629545,-0.4816647075314662,None
683,46.236,0.1760406494140625,-1.9161834716796875,-0.9161834716796875,-0.5959971714500718,-0.550246355948028,None
684,46.286,0.0199737548828125,-0.9996337890625,-0.61968994140625,-0.48483409969439756,-0.6636437921895432,None
685,46.335,-0.1798095703125,-0.6463470458984375,-0.29620361328125,-0.41660963170246224,0.24518237950415916,None
686,46.385,-0.258575439453125,-0.382354736328125,0.1029815673828125,0.26006744256001496,0.5467534755760477,None
687,46.435,-0.23236083984375,-0.4257049560546875,0.066375732421875,0.15405816497221694,0.47467852754755735,None
688,46.485,-0.0012054443359375,-0.4189300537109375,0.293182373046875,0.5733722159293343,0.002357462224833704,None
689,46.535,-0.025177001953125,-0.609771728515625,0.5169830322265625,0.6466871829011162,0.03147796932870211,None
690,46.585,0.063446044921875,-1.0010528564453125,0.835357666015625,0.6234999231098062,-0.015927109550736517,None
691,46.634,-0.1601409912109375,-1.2735443115234375,1.0977935791015625,0.6012687487100017,-0.021621987046983863,None
692,46.684,0.0736846923828125,-1.279083251953125,1.23406982421875,0.5904190691736984,-0.033099750712251075,None
693,46.734,-0.003204345703125,-1.2261505126953125,0.8594970703125,0.5897009909328372,-0.029096482701832564,None
694,46.784,0.1195068359375,-1.073394775390625,0.7199859619140625,0.6300562852534652,-0.007630337098182147,None
695,46.834,0.0915069580078125,-0.8557586669921875,0.20770263671875,0.23586385394855733,-0.1033573325072336,None
696,46.884,0.097747802734375,-0.6826934814453125,-0.0330352783203125,-0.04833306607096467,-0.1415718734150713,None
697,46.933,0.1959075927734375,-0.5398406982421875,0.075714111328125,0.1388932728176226,-0.33820409757780495,None
698,46.983,0.1772308349609375,-0.3428497314453125,-0.07257080078125,-0.20708121333367366,-0.45129901802853933,None
699,47.033,0.295806884765625,-0.01800537109375,-0.1836700439453125,-0.32159348489798056,-0.3235402047768815,None
700,47.083,0.061737060546875,0.088531494140625,0.2020416259765625,-0.4508489369769109,-0.16273697142342392,None
701,47.133,0.098785400390625,0.425445556640625,-0.5030670166015625,-0.7309473969345829,-0.0015806765745575778,None
702,47.183,-0.31304931640625,-0.322357177734375,-1.6653900146484375,-0.9293785531894163,0.13854880395678076,None
703,47.233,0.8509063720703125,-0.604705810546875,-1.733062744140625,-0.9951549230212157,0.16114657567426288,None
704,47.312,2.009246826171875,-0.52813720703125,-1.369537353515625,-0.9987902773951216,0.28440129472517706,None
705,47.591,-2.4992828369140625,0.10809326171875,1.269866943359375,-0.9934340972888018,0.4119636937835846,None
706,47.641,-0.7433624267578125,-1.0455780029296875,-1.534149169921875,-0.995077912981191,0.5283263226581636,Body
707,47.701,0.1064605712890625,-1.103271484375,-2.1582183837890625,-0.9998488461664429,0.5969356321174133,None
708,47.751,0.241851806640625,-1.0078125,-1.123565673828125,-0.992915149968379,0.6163185519823129,None
709,47.801,0.27069091796875,-1.0868377685546875,-0.7487640380859375,-0.9961770497111134,0.6027934946642288,None
710,47.851,0.4301605224609375,-0.945343017578125,-1.0062255859375,-0.9973986445423366,0.5711856241270973,None
711,47.9,0.403778076171875,-0.8476409912109375,-0.9977264404296875,-0.9941914706284176,0.515779209588276,None
712,47.95,0.5355682373046875,-0.614501953125,-0.7551422119140625,-0.9897181080934301,0.45812465495416516,None
713,48,0.7027587890625,-0.5650634765625,-0.86090087890625,-0.9849776782190136,0.38744506028403813,None
714,48.05,1.0973663330078125,-0.8137664794921875,-1.1804351806640625,-0.9689918379284329,0.3308583640912411,None
715,48.11,0.88372802734375,-1.0646514892578125,-2.056671142578125,-0.8966658453253799,0.2829323033076028,None
716,48.16,0.4899139404296875,-0.752166748046875,-0.9295501708984375,-0.7317677670027206,0.23388685168285572,None
717,48.209,0.1208648681640625,-0.446502685546875,-0.053375244140625,-0.11869563050379865,-0.25956643272030067,None
718,48.259,0.041748046875,-0.2431182861328125,-0.103759765625,-0.3925324465649411,-0.1560029030767645,None
719,48.309,-0.1137847900390625,-0.0915985107421875,-0.1166229248046875,-0.27827733769558677,-0.22083640277237035,None
720,48.359,-0.2872772216796875,-0.4462890625,0.2273712158203125,0.4539517940324496,0.4975291432302349,None
721,48.409,-0.163970947265625,-0.6819915771484375,0.7417755126953125,0.7361494848766847,0.16061464521021485,None
722,48.459,-0.1200408935546875,-0.9669952392578125,1.1725006103515625,0.7127919144912442,0.11989346558635695,None
723,48.509,-0.327239990234375,-1.2274627685546875,1.0836639404296875,0.665444151525364,0.09475655946195431,None
724,48.558,-0.43060302734375,-1.480133056640625,1.134735107421875,0.653062770971235,0.06773663473524842,None
725,48.608,-0.3574066162109375,-1.4033203125,0.9278717041015625,0.6416763040651358,0.0585411005491276,None
726,48.658,-0.259246826171875,-1.2790985107421875,0.5622100830078125,0.6671400339944785,0.0711938735813128,None
727,48.708,-0.169342041015625,-1.0694122314453125,0.194732666015625,0.7183233028961638,0.10690476568236176,None
728,48.758,-0.0849456787109375,-0.8042144775390625,-0.16259765625,-0.19817212882240992,0.1029803703497771,None
729,48.808,0.134185791015625,-0.605926513671875,-0.181854248046875,-0.2874585244518251,-0.20749239951808504,None
730,48.857,0.1679840087890625,-0.32574462890625,-0.1886444091796875,-0.5011465210213424,-0.40752307477644933,None
731,48.907,0.3291778564453125,-0.20159912109375,-0.4082183837890625,-0.5789283204341258,-0.3067310531291174,None
732,48.957,0.2984771728515625,-0.1756134033203125,-0.2028961181640625,-0.6555257495518475,-0.18928881284530832,None
733,49.007,0.0632781982421875,-0.559967041015625,-0.618988037109375,-0.7415773538947101,-0.0755934020539911,None
734,49.057,0.04815673828125,-0.7639007568359375,-0.4276580810546875,-0.4884935025843874,-0.05492412202321873,None
735,49.107,0.0658416748046875,-0.7413787841796875,-1.1021881103515625,-0.6453689103383901,-0.019239873658938898,None
736,49.156,0.3706207275390625,-0.6340789794921875,-0.3862152099609375,-0.5201966409499413,-0.4466353697043373,None
737,49.206,0.795562744140625,-0.2274017333984375,-1.5133514404296875,-0.6987910313706658,-0.4065355443055438,None
738,49.256,1.473724365234375,-0.1123199462890625,-1.6569366455078125,-0.8803510211687494,-0.3131811477525689,None
739,49.575,-2.030731201171875,1.124053955078125,-0.3739166259765625,-0.9182989091698799,-0.30163780327871825,None
740,49.725,0.7703399658203125,-0.6386566162109375,-1.983917236328125,-0.8943179294991973,-0.3967567646904148,Body
741,49.775,0.5796356201171875,-0.6318359375,-1.498565673828125,-0.8146873193847796,-0.4853360442103939,None
742,49.824,0.4515533447265625,-0.3969879150390625,-1.654327392578125,-0.7302773609680746,-0.5820944804238669,None
743,49.874,0.5201873779296875,-0.2600860595703125,-1.3494415283203125,-0.6036524619530897,-0.6815496295521076,None
744,49.924,0.5774688720703125,-0.102142333984375,-1.2046966552734375,-0.41916472261610815,-0.7872089613607572,None
745,49.974,0.6948699951171875,-0.3121490478515625,-1.0739593505859375,-0.23666428355148472,-0.8590344063976314,None
746,50.024,0.97259521484375,-0.68206787109375,-1.06683349609375,-0.0655613384472716,-0.9115340206631243,None
747,50.074,1.113433837890625,-0.97015380859375,-0.85345458984375,0.05406439903954158,-0.9410551730328278,None
748,50.123,0.749786376953125,-0.8703765869140625,-0.637420654296875,0.21436828284286025,-0.9689901779637122,None
749,50.173,0.24951171875,-0.6027984619140625,-0.33837890625,-0.48949706688597644,-0.3395039773245384,None
750,50.223,0.1137542724609375,-0.2803955078125,0.0356292724609375,0.1260543369292758,-0.3733540968243693,None
751,50.273,-0.1295623779296875,-0.403900146484375,0.06146240234375,0.15044040988377946,0.30229090633715644,None
752,50.323,-0.1330718994140625,-0.62066650390625,0.265350341796875,0.3931061332421878,0.1934180818302679,None
753,50.373,-0.2981719970703125,-0.931121826171875,0.3570098876953125,0.3580058283961555,0.2864721246717517,None
754,50.422,-0.3398590087890625,-1.0185089111328125,0.9966278076171875,0.31993737236102826,0.21454571169008768,None
755,50.472,-0.355224609375,-0.9112396240234375,1.1600189208984375,0.21252681914749846,0.14941261531449715,None
756,50.522,-0.5270233154296875,-1.207977294921875,1.28582763671875,0.1406802484096075,0.11345515921098873,None
757,50.572,-0.4776763916015625,-1.4779510498046875,0.953521728515625,0.05924083486505306,0.09921208553766893,None
758,50.622,-0.4742431640625,-1.5591278076171875,0.21258544921875,0.02291966802207643,0.1043397031558603,None
759,50.672,-0.361419677734375,-1.304931640625,0.0901641845703125,0.05792068753637004,0.1298811653367844,None
760,50.722,-0.039154052734375,-0.8887176513671875,-0.3055877685546875,-0.3251664369216563,0.041626497922023366,None
761,50.771,0.273040771484375,-0.5252685546875,-0.3572998046875,-0.5624361556599511,-0.3948738556371318,None
762,50.821,0.3019866943359375,-0.2913970947265625,-0.1277008056640625,-0.40138485348629926,-0.6884422671845907,None
763,50.871,0.3048248291015625,0.0521392822265625,-0.5070953369140625,-0.5066312882456947,-0.6227453134235819,None
764,50.921,0.28863525390625,0.21282958984375,-0.297149658203125,-0.6478029934192606,-0.5664612403997883,None
765,50.971,0.052764892578125,-0.1085968017578125,-0.398773193359375,-0.7715290254123116,-0.4946365334352295,None
766,51.021,-0.07061767578125,-0.6944732666015625,-0.7215118408203125,-0.7204778129807602,0.07034179775475866,None
767,51.07,0.3970794677734375,-0.5811920166015625,-1.696533203125,-0.8886919801757026,0.08735675161924973,None
768,51.12,1.216217041015625,-0.4266357421875,-1.894866943359375,-0.965289961542817,0.12039591047155089,None
769,51.449,-2.396728515625,-0.0283355712890625,0.76690673828125,-0.9850222150125281,0.19109860811537285,None
770,51.569,0.4666290283203125,-0.974029541015625,-2.0024566650390625,-0.9886102988191197,0.14337377176023156,Body
771,51.619,0.47393798828125,-0.624908447265625,-1.2071685791015625,-0.973291262209298,0.0902519703928282,None
772,51.669,0.6939239501953125,-0.2174530029296875,-1.4555511474609375,-0.9549939943738779,0.0072640181698992775,None
773,51.718,0.636810302734375,-0.219268798828125,-0.908935546875,-0.9122157911101968,-0.055083028008747585,None
774,51.768,0.7075042724609375,-0.10479736328125,-0.8619384765625,-0.8655945343950932,-0.1356790946010507,None
775,51.818,0.7004547119140625,-0.1979827880859375,-0.9493560791015625,-0.8215398791882503,-0.2037056057291789,None
776,51.868,1.265869140625,-0.2739105224609375,-1.2556915283203125,-0.754059864003082,-0.2879240651124786,None
777,51.918,1.2682342529296875,-0.6746368408203125,-1.672210693359375,-0.6557978972262439,-0.33315987327435775,None
778,51.968,1.273681640625,-0.4586639404296875,-1.6392974853515625,-0.5081406022190305,-0.3650768243102225,None
779,52.017,0.35369873046875,-0.301177978515625,-0.7285003662109375,-0.23183879969923932,-0.34443938532419355,None
780,52.067,-0.1056365966796875,-0.1858367919921875,-0.196319580078125,-0.7262299914743836,0.3639704257686544,None
781,52.117,-0.1815032958984375,-0.1135711669921875,0.241455078125,-0.5283470784159428,0.29800162103937755,None
782,52.167,-0.3229217529296875,-0.3267974853515625,0.7160797119140625,-0.3708678226953058,0.20544453818715694,None
783,52.217,-0.071044921875,-0.3766632080078125,0.7071075439453125,-0.3515654950137364,0.07881269614880071,None
784,52.267,-0.101959228515625,-0.6277923583984375,0.7357177734375,0.7606969283675896,0.10483999321638701,None
785,52.316,-0.266021728515625,-0.936187744140625,1.092254638671875,0.7276689997909849,0.058712085363651516,None
786,52.366,-0.402618408203125,-1.172637939453125,1.179351806640625,0.6859312465856946,0.03482003335744343,None
787,52.416,-0.6051788330078125,-1.3242645263671875,1.4124298095703125,0.6892247784315759,0.03911645838186534,None
788,52.466,-0.4469451904296875,-1.2567138671875,1.004150390625,0.6835108869853768,0.04937594381827874,None
789,52.516,-0.382904052734375,-1.12347412109375,0.4503326416015625,0.7033195024955967,0.0883404913702414,None
790,52.566,-0.16949462890625,-0.918182373046875,0.3237152099609375,0.3325011907638425,0.1715150705219036,None
791,52.616,-0.129608154296875,-0.5366058349609375,-0.15167236328125,-0.2719950147869687,0.22639243070036053,None
792,52.665,0.118408203125,-0.27996826171875,-0.0347442626953125,-0.12315598107431586,-0.3870088657053407,None
793,52.715,0.15118408203125,-0.2328948974609375,-0.139862060546875,-0.5148343743067298,-0.4862807069028629,None
794,52.765,0.084503173828125,-0.0523834228515625,-0.3913116455078125,-0.6510817134097749,-0.39157481734167476,None
795,52.815,0.0016326904296875,-0.15997314453125,-0.77557373046875,-0.7660770990612429,-0.2778235681054056,None
796,52.865,0.13311767578125,-0.2320404052734375,-0.924591064453125,-0.8815664442204646,-0.14869337720703515,None
797,52.915,0.2659149169921875,-0.0250701904296875,-1.3222198486328125,-0.9572425713969545,-0.03368102359232667,None
798,52.964,0.1249237060546875,-0.407684326171875,-1.074951171875,-0.9987257796425889,0.08765951728118257,None
799,53.032,1.3690338134765625,-0.650421142578125,-3.107940673828125,-0.9427972552904204,0.1546655695442798,None
800,53.332,-2.0932769775390625,1.049102783203125,1.1208038330078125,-0.9246112925258915,0.28157151745917836,None
801,53.463,0.49664306640625,-0.8679351806640625,-2.0228271484375,-0.9116157620388177,0.26534130166995407,Body
802,53.513,0.34466552734375,-0.8709564208984375,-0.7729339599609375,-0.9627131693950703,0.2437446902219179,None
803,53.563,0.083709716796875,-0.7605743408203125,-1.3595428466796875,-0.9755938130220463,0.2098143448881906,None
804,53.612,0.21636962890625,-0.5368194580078125,-0.8085479736328125,-0.833100972096055,-0.21759808977575032,None
805,53.662,0.321807861328125,0.0411376953125,-0.8712615966796875,-0.843619748285945,-0.29925957904568473,None
806,53.712,0.569732666015625,0.1768341064453125,-0.5807037353515625,-0.851158702922835,-0.3692182701397305,None
807,53.762,0.5045318603515625,-0.13323974609375,-1.0039520263671875,-0.8879560311286525,-0.3828074841610412,None
808,53.812,0.83477783203125,-0.3767547607421875,-1.359832763671875,-0.9265836235328238,-0.3683954765021377,None
809,53.862,1.344329833984375,-0.4913330078125,-1.7259674072265625,-0.976524727879389,-0.3148891001883485,None
810,54.151,-2.2473602294921875,1.2798614501953125,1.0781707763671875,-0.9859491802504712,-0.34826570047396915,None
811,54.201,-0.384979248046875,-0.413482666015625,-2.1605072021484375,-0.9959639183225684,-0.3067291950570716,None
812,54.26,0.067596435546875,-1.113433837890625,-2.2809600830078125,-0.9922191591736214,-0.2539163342748051,Body
813,54.31,0.228851318359375,-1.095703125,-0.9804534912109375,-0.9758420558290211,-0.21842969213258326,None
814,54.36,0.606292724609375,-0.557342529296875,-0.9092864990234375,-0.9683330756977263,-0.24613842095130423,None
815,54.41,0.5476837158203125,-0.442291259765625,-0.7733154296875,-0.9605398717780463,-0.2757251324842976,None
816,54.46,0.2909698486328125,-0.3218994140625,-1.1470184326171875,-0.9543435490661651,-0.31596297184644456,None
817,54.51,0.3438262939453125,-0.25494384765625,-1.186309814453125,-0.9399139354528755,-0.345429144929204,None
818,54.559,0.36297607421875,-0.401611328125,-0.799041748046875,-0.9229983025211242,-0.36176734206927713,None
819,54.609,0.1661834716796875,-0.4598541259765625,-1.10272216796875,-0.9439141972866665,-0.3847826194678166,None
820,54.659,0.1638031005859375,-0.6985321044921875,-1.14996337890625,-0.9583707101181833,-0.4157381399501475,None
821,54.709,-0.1483306884765625,-0.8803863525390625,-1.259918212890625,-0.9624642935323174,-0.4444466551373052,None
822,54.759,-0.1065216064453125,-0.776092529296875,-1.0183258056640625,-0.9615412643483392,-0.48255219104755837,None
823,54.809,-0.0170745849609375,-0.6297149658203125,-0.8580474853515625,-0.8061898106822127,0.016040587056185204,None
824,54.858,0.0481414794921875,-0.5422821044921875,-0.8751220703125,-0.850030375616353,-0.04671011586415093,None
825,54.908,0.0035552978515625,-0.5613250732421875,-0.854278564453125,-0.835731512542013,-0.0034780885330648274,None
826,54.958,-0.05999755859375,-0.6051025390625,-0.756866455078125,-0.7810654118688896,0.06179749480853968,None
827,55.008,-0.016571044921875,-0.59478759765625,-0.5800628662109375,-0.6981895781778054,0.019941683629956804,None
828,55.058,-0.2103271484375,-0.5044708251953125,-1.2093963623046875,-0.7315551557355828,0.07027188735611804,None
829,55.108,-0.2411956787109375,-0.507354736328125,-0.857086181640625,-0.721648734456826,0.12935155632753656,None
830,55.158,-0.2119140625,-0.4450836181640625,-1.0160980224609375,-0.7294566459711875,0.18258036685965798,None
831,55.207,-0.2203216552734375,-0.40264892578125,-0.8932342529296875,-0.7327847958123542,0.24232789273749156,None
832,55.257,-0.357635498046875,-0.4149017333984375,-0.97027587890625,-0.7187080259756666,0.3176452542053098,None
833,55.307,-0.603118896484375,-0.547515869140625,-0.6589202880859375,-0.7691300304018848,0.5756529208811992,None
834,55.357,-0.4806976318359375,-0.625,-0.6111602783203125,-0.6991463860518503,0.4818525470335422,None
835,55.407,-0.182403564453125,-0.5041656494140625,-0.5478668212890625,-0.7358452284575291,0.23795122766948082,None
836,55.457,-0.287506103515625,-0.547637939453125,-0.6773223876953125,-0.7776212796887543,0.31344632849856424,None
837,55.506,-0.2122955322265625,-0.6818389892578125,-0.5015411376953125,-0.5925353263734657,0.24327695079700015,None
838,55.556,-0.149658203125,-0.543609619140625,-0.8102874755859375,-0.8304300212505992,0.15160559271664487,None
839,55.606,-0.1170501708984375,-0.5696563720703125,-0.5940093994140625,-0.7217469723603925,0.1408041125084629,None
840,55.656,-0.1637725830078125,-0.609283447265625,-0.838104248046875,-0.8088494209663292,0.1561179298399357,None
841,55.706,-0.0554046630859375,-0.471588134765625,-0.8564910888671875,-0.8269951590154735,0.1558097847245266,None
842,55.756,-0.1177978515625,-0.5406494140625,-0.807220458984375,-0.8308595876471966,0.1203659947382379,None
843,55.805,-0.1021270751953125,-0.552337646484375,-0.7805023193359375,-0.8162800099089518,0.10620443499719937,None
844,55.855,-0.02288818359375,-0.5744171142578125,-0.7791595458984375,-0.8049080303481434,0.023637950962029974,None
845,55.905,-0.20684814453125,-0.507843017578125,-0.5889739990234375,-0.7573420343107508,0.25704227798707624,None
846,55.955,-0.345001220703125,-0.544342041015625,-0.8463897705078125,-0.8410725376922127,0.32430459655955746,None
847,56.005,-0.33209228515625,-0.6263580322265625,-1.01763916015625,-0.8429354042205085,0.32034012011509155,None
848,56.055,-0.0749664306640625,-0.50421142578125,-0.8594207763671875,-0.862517063460609,0.07502447710745302,None
849,56.105,-0.132354736328125,-0.6004638671875,-0.79644775390625,-0.7984921632664848,0.13154145296383707,None
850,56.154,-0.152191162109375,-0.523101806640625,-0.7794036865234375,-0.8303256865630294,0.16004455767649187,None
851,56.204,-0.095306396484375,-0.55963134765625,-0.8038787841796875,-0.82070829171309,0.09684430972114012,None
852,56.254,-0.0633392333984375,-0.4759674072265625,-0.774932861328125,-0.8521067721281663,0.06947874572061888,None
853,56.304,-0.0622100830078125,-0.496429443359375,-0.936737060546875,-0.865328181956973,0.055840746078734516,None
854,56.354,-0.102081298828125,-0.49908447265625,-0.8021392822265625,-0.8490681953896675,0.10742821132334023,None
855,56.404,-0.050079345703125,-0.459808349609375,-0.9528350830078125,-0.8547802905425715,0.10170259857538991,None
856,56.453,-0.1176300048828125,-0.5279388427734375,-0.8463897705078125,-0.8484731811582641,0.1171081692807871,None
857,56.503,0.1794891357421875,-0.4905242919921875,-0.744232177734375,-0.8349542716392562,-0.19740632097515862,None
