index,time,acc x,acc y,acc z,ori x,ori z,punch
0,0,-0.0455169677734375,-0.2441864013671875,-1.0771636962890625,-0.9752547104225067,-0.04117571970318152,None
1,0.049,-0.0094757080078125,-0.2828826904296875,-0.91168212890625,-0.9654656834915563,-0.04946641672195362,None
2,0.099,-0.092010498046875,-0.310333251953125,-0.9951934814453125,-0.9463103074175704,-0.052241349884640596,None
3,0.149,-0.153839111328125,-0.3865509033203125,-0.8983306884765625,-0.9302436490609626,-0.046020201145643126,None
4,0.199,-0.2194061279296875,-0.4289093017578125,-0.9074859619140625,-0.9114121053237519,-0.05957525552199208,None
5,0.249,-0.1827239990234375,-0.43023681640625,-0.7788543701171875,-0.9078515998390122,-0.06764397725329238,None
6,0.299,-0.1805572509765625,-0.4029693603515625,-0.8656005859375,-0.9090202723730535,-0.07010995922699519,None
7,0.348,-0.208343505859375,-0.4050445556640625,-0.9204864501953125,-0.8895403930172994,-0.07668751553890714,None
8,0.398,-0.303009033203125,-0.484283447265625,-0.7917633056640625,-0.8776861545511484,-0.08666088232130731,None
9,0.448,-0.2754364013671875,-0.41259765625,-0.8842010498046875,-0.8832320077633996,-0.06940761465992418,None
10,0.498,-0.341400146484375,-0.446929931640625,-0.9519805908203125,-0.8725246412851262,-0.085644458645486,None
11,0.548,-0.34759521484375,-0.5390625,-0.860931396484375,-0.8475642422402623,0.3237664951171906,None
12,0.598,-0.1880950927734375,-0.408843994140625,-0.7251129150390625,-0.8238384748295393,0.29242619700885775,None
13,0.648,-0.2073822021484375,-0.493011474609375,-0.492462158203125,-0.7067125204581435,0.28524193820877797,None
14,0.697,-0.113189697265625,-0.4960479736328125,-0.6760711669921875,-0.8062557124679056,0.1337723148707408,None
15,0.747,-0.4569549560546875,-0.5460968017578125,-0.925811767578125,-0.7734932054637278,0.16724915069064658,None
16,0.797,-0.713134765625,-0.5554351806640625,-0.7479400634765625,-0.7548923696108506,0.2098783262024255,None
17,0.847,-0.6160125732421875,-0.595611572265625,-0.8519439697265625,-0.5679584607361192,0.16818938649041826,None
18,0.897,-0.2548065185546875,-0.5237579345703125,-0.0343170166015625,-0.06538056935982538,0.43671581760916284,None
19,0.947,-0.452789306640625,-1.0587921142578125,0.4104766845703125,0.08547944287444988,0.3930393367406609,None
20,0.996,-0.467742919921875,-1.0234375,0.72711181640625,0.03736969937010161,0.37010932007739256,None
21,1.046,-0.3571929931640625,-1.22161865234375,0.1320343017578125,0.028114367254182527,0.3357462555051051,None
22,1.096,-0.227569580078125,-0.7531890869140625,0.4168853759765625,0.484263793169077,0.2555711399028632,None
23,1.146,0.0208740234375,-0.56695556640625,0.253997802734375,0.40884855666604236,-0.03358100306837946,None
24,1.196,-0.0322418212890625,-0.7044219970703125,-0.1727752685546875,-0.23821179300268489,0.044409161461080975,None
25,1.246,-0.555267333984375,-1.4067230224609375,-0.26031494140625,-0.18871763943171696,0.054219295532786836,None
26,1.296,-0.4524993896484375,-1.60943603515625,0.09033203125,-0.14789319744036655,-0.003304409305164159,None
27,1.345,-0.2173614501953125,-0.954315185546875,0.13873291015625,0.14386208803714434,0.21988140653824162,None
28,1.395,0.221893310546875,-0.6973114013671875,0.05999755859375,0.0857245414790745,-0.30221623136220904,None
29,1.445,-0.05810546875,-0.814300537109375,0.0482025146484375,0.05909155380457202,0.07105157625941852,None
30,1.495,-0.141937255859375,-0.763641357421875,0.3673248291015625,0.4334761269437768,0.16519730596127735,None
31,1.545,-0.1067657470703125,-0.9688568115234375,0.2046966552734375,0.20671323874490843,0.10719629915515654,None
32,1.595,0.0413818359375,-0.701385498046875,0.2810516357421875,0.3719581354077467,-0.054684892303377704,None
33,1.644,0.0861968994140625,-0.482513427734375,0.1418304443359375,0.28201027218506286,-0.1689274989966664,None
34,1.694,-0.09747314453125,-0.8072509765625,0.1484527587890625,0.18086621967374314,0.11792697375345784,None
35,1.819,-0.5949554443359375,-2.1251068115234375,0.727020263671875,0.3196934093487157,0.011384346995443152,None
36,1.869,0.6599578857421875,-0.9774169921875,0.4731292724609375,0.4516011556692578,-0.1546727729854733,None
37,1.919,1.7328033447265625,-0.6212158203125,0.2618255615234375,0.6651097996718383,-0.2528033445567211,None
38,2.228,-2.6158905029296875,1.412750244140625,0.445404052734375,0.5790107302355014,-0.4281941259424567,Straight
39,2.277,0.08074951171875,-0.018341064453125,1.108612060546875,0.4685560823546396,-0.5876510793582306,None
40,2.327,0.8054046630859375,-0.21234130859375,0.914825439453125,0.35095997077426844,-0.6953730294274484,None
41,2.377,1.3209381103515625,-0.1074676513671875,1.42706298828125,0.2465522946739104,-0.7639577663845313,None
42,2.427,0.7950592041015625,-0.298828125,0.4858245849609375,0.10161542955684241,-0.7840974819213409,None
43,2.477,0.8545074462890625,-0.5974578857421875,0.7489166259765625,0.04007816343738735,-0.815627431883822,None
44,2.527,0.2532501220703125,-0.7549285888671875,0.7908477783203125,0.04180292363873894,-0.8158108823874463,None
45,2.577,0.3626708984375,-0.65924072265625,0.618499755859375,0.6842128454906325,-0.3723531392042645,None
46,2.626,0.836578369140625,-0.1777496337890625,0.4733123779296875,0.685122871874275,-0.4170555287565618,None
47,2.676,1.089813232421875,0.0529022216796875,0.446502685546875,0.6902044875281225,-0.428061800336242,None
48,2.726,-0.0856170654296875,-1.30364990234375,0.2987213134765625,0.6806983237036603,-0.34355242919937506,None
49,2.776,-0.2813262939453125,-1.4584808349609375,0.8215484619140625,0.6996200963355085,-0.3049676849440896,None
50,2.826,0.90283203125,-0.2452850341796875,0.6571502685546875,0.6250416077287356,-0.3345476814303266,None
51,2.876,1.3863525390625,0.445556640625,-0.08447265625,0.5375103692787494,-0.3537772162191863,None
52,2.925,-0.2944793701171875,-2.2354583740234375,0.79534912109375,0.5978868366605102,-0.28016223611351987,None
53,2.985,0.471893310546875,-2.03521728515625,1.8755035400390625,0.6940039773081064,-0.2781250284768894,None
54,3.314,-2.015960693359375,0.7360687255859375,0.2894287109375,0.5697978908506619,-0.5120570667137079,None
55,3.364,-0.2331390380859375,-0.1235504150390625,1.593719482421875,0.5383142320077969,-0.6209813409818042,Straight
56,3.414,0.557830810546875,-0.2361602783203125,0.741790771484375,0.39546927977932533,-0.7039279358769591,None
57,3.464,1.2689056396484375,-0.23590087890625,1.00469970703125,0.2943295212997227,-0.7747693457987683,None
58,3.514,1.1971588134765625,0.0841522216796875,0.635589599609375,0.2345478437803423,-0.8223216320581302,None
59,3.564,1.0814666748046875,0.0193939208984375,0.71356201171875,0.1911547700373149,-0.8157201039696171,None
60,3.613,0.7526702880859375,-0.0838165283203125,0.6299591064453125,0.20073918925820758,-0.7890969423241833,None
61,3.663,0.9040374755859375,-0.3991241455078125,0.78619384765625,0.22384523652579302,-0.7502381437346567,None
62,3.713,0.6383209228515625,-0.91644287109375,0.4659423828125,0.21784413803345237,-0.6821054697298473,None
63,3.763,0.73626708984375,-0.790252685546875,0.5879669189453125,0.21212881204688996,-0.6463909369624601,None
64,3.813,0.535980224609375,-0.5385589599609375,0.5279998779296875,0.7000720177530529,-0.5792758128582438,None
65,3.863,0.7144317626953125,-0.206298828125,0.5484619140625,0.681471719821925,-0.5715118624603484,None
66,3.912,0.644256591796875,-0.52099609375,0.522216796875,0.7079337090957845,-0.6578110220812075,None
67,4.002,-0.35784912109375,-2.4195404052734375,1.8841552734375,0.7387936861337374,-0.7465607852529281,None
68,4.052,1.5947723388671875,-0.6444091796875,0.0142974853515625,0.6943224002983449,-0.8388559848374989,None
69,4.301,-1.6278076171875,-2.0660247802734375,0.2300567626953125,0.7987213189972352,-0.8509958935039915,None
70,4.401,-2.312347412109375,1.376251220703125,0.2395782470703125,0.7601907802693852,-0.9492220449275616,None
71,4.451,-0.361297607421875,0.08709716796875,1.3893890380859375,0.7775737436866995,-0.9884270363662935,Straight
72,4.501,0.68267822265625,-0.1031494140625,1.0198974609375,0.6914338700457361,-0.9997761115494135,None
73,4.55,1.2584075927734375,0.002166748046875,0.8336944580078125,0.5748886926887715,-0.9973375515271226,None
74,4.6,1.1299896240234375,-0.1293792724609375,0.413726806640625,0.49438926325941784,-0.9964455626767549,None
75,4.65,1.103515625,-0.2308502197265625,0.6771697998046875,0.45180658192936163,-0.9980014751025265,None
76,4.7,0.72613525390625,-0.518646240234375,0.7880401611328125,0.46150371844967875,-0.999757443304436,None
77,4.75,0.8075103759765625,-0.7114410400390625,0.553466796875,0.46283651377250046,-0.9993106960065403,None
78,4.8,0.6033782958984375,-0.9719696044921875,0.524322509765625,0.4714491995310663,-0.9975746670747191,None
79,4.85,0.66046142578125,-0.694549560546875,0.5357818603515625,0.6107937952532032,-0.6014965272954489,None
80,4.899,0.5496063232421875,-0.6496734619140625,0.617767333984375,0.6890880055688543,-0.5226578926780828,None
81,4.949,0.6804656982421875,-0.2438201904296875,0.27630615234375,0.6605639623582139,-0.5131612825702435,None
82,4.999,0.55999755859375,-0.533233642578125,0.372467041015625,0.5726401949557345,-0.652454907933206,None
83,5.049,0.164947509765625,-1.088134765625,0.65771484375,0.5545483176300616,-0.6230707616964982,None
84,5.134,-0.10858154296875,-2.206024169921875,1.2097015380859375,0.6272519685668884,-0.7089362836567783,None
85,5.184,1.5766754150390625,-0.5185394287109375,0.7076873779296875,0.7221311390438228,-0.7782567369059623,None
86,5.318,2.1085662841796875,1.20635986328125,0.259185791015625,0.877973103265072,-0.7262084019129675,None
87,5.498,-2.4972076416015625,1.545135498046875,0.1695098876953125,0.7570830937222159,-0.8889962741574275,None
88,5.547,0.503326416015625,0.3095245361328125,0.673004150390625,0.6702071360211286,-0.9494542800023229,None
89,5.597,0.850555419921875,-0.224029541015625,1.19171142578125,0.6114560710894322,-0.9709146330093384,Straight
90,5.647,0.898101806640625,-0.2019195556640625,1.340850830078125,0.5240884578882703,-0.9853730865094927,None
91,5.697,0.9854888916015625,0.327301025390625,0.299041748046875,0.32289422677597907,-0.9840345994224131,None
92,5.747,0.3062591552734375,-0.0565338134765625,-0.04205322265625,0.19416386950442618,-0.9612727886354833,None
93,5.797,0.2122344970703125,-0.62457275390625,0.580230712890625,0.6806213406640854,-0.24158109529964164,None
94,5.846,0.0060272216796875,-1.58477783203125,0.331573486328125,0.6749614323421429,-0.19129435630197747,None
95,5.896,0.0933074951171875,-2.04681396484375,0.4274139404296875,0.742863274640541,-0.19535467433269102,None
96,5.946,1.120819091796875,-1.3462371826171875,1.2108612060546875,0.7998514605497611,-0.2285500684721105,None
97,5.996,0.56085205078125,-0.6262054443359375,0.261749267578125,0.38565756280747115,-0.6370025357641865,None
98,6.046,0.1869964599609375,-0.20306396484375,0.355804443359375,0.421164026016041,-0.5937913861264627,None
99,6.096,0.270233154296875,0.0166168212890625,0.378387451171875,0.3673388985112114,-0.5315368328281922,None
100,6.146,-0.024505615234375,-0.272064208984375,0.2779998779296875,0.7146954677429485,0.06287556138760793,None
101,6.195,-0.2985687255859375,-0.6599884033203125,0.2859954833984375,0.39760803296672026,0.3833727609385681,None
102,6.245,-0.3926544189453125,-1.11474609375,0.22198486328125,0.34379073955584416,0.3921480776142519,None
103,6.365,0.2837066650390625,-1.9908447265625,0.6082305908203125,0.41808140335749017,0.34204765468375214,None
104,6.415,-0.2007598876953125,-1.11431884765625,0.69384765625,0.43602519949978247,0.3516287184154546,None
105,6.465,0.1304779052734375,-0.0937652587890625,0.1095733642578125,0.3804194575209328,0.350352877469973,None
106,6.514,-0.0146942138671875,0.0027923583984375,0.0568695068359375,0.3511754263356764,0.37063658546380396,None
107,6.564,-0.3564453125,-0.3260498046875,0.3757171630859375,0.7552628475485353,0.5824416592388727,None
108,6.614,-0.215576171875,-0.424224853515625,0.4921417236328125,0.7574367932129122,0.3149049988615219,None
109,6.664,-0.49755859375,-0.9113311767578125,0.6960296630859375,0.7602360730702554,0.31173677954765083,None
110,6.714,-0.62823486328125,-1.61224365234375,0.7803802490234375,0.747564503913528,0.2724317775421256,None
111,6.823,-1.389892578125,-1.9465789794921875,1.0017547607421875,0.7523283287677432,0.24258516339444702,None
112,6.873,-0.6127471923828125,-0.9037322998046875,0.49005126953125,0.7359331213822609,0.10761996499631207,None
113,6.923,-0.0462799072265625,-0.385528564453125,0.3860015869140625,0.7075401729248898,0.08452738491230821,None
114,6.973,-0.2749786376953125,-0.14306640625,0.418243408203125,0.7714510118450665,-0.08623130695921243,None
115,7.023,0.11932373046875,0.3488006591796875,0.135345458984375,0.8152336696955292,-0.2779003343236297,None
116,7.073,0.3656158447265625,0.4044647216796875,-0.1720428466796875,0.8129517160494554,-0.41567253825089984,None
117,7.123,0.6909637451171875,0.386932373046875,-0.3132171630859375,0.8357889179913255,-0.4889976852719868,None
118,7.172,1.2774505615234375,-0.2518157958984375,0.3466644287109375,0.8875079716678643,-0.4672911549534656,None
119,7.222,1.3425140380859375,-0.345245361328125,-0.6128692626953125,0.8611945001016307,-0.390830037881401,None
120,7.272,-0.0061798095703125,-0.64654541015625,0.0558624267578125,0.08608068972853762,0.00952228864661663,None
121,7.322,0.1589813232421875,-0.3529052734375,0.3609619140625,0.7150415878741849,-0.3003870879082224,None
122,7.372,0.398468017578125,-0.0872650146484375,0.2667388916015625,0.6558091976422085,-0.12920830629530308,None
123,7.422,0.0051116943359375,-0.455474853515625,0.4032440185546875,0.6628725792592236,-0.008402560819523355,None
124,7.541,0.55609130859375,-2.4123992919921875,1.239837646484375,0.7109867488219966,-0.2781035678539073,None
125,7.84,-2.637725830078125,2.679443359375,-1.1387786865234375,0.4844419090618901,-0.5170810624837976,Straight
126,7.89,0.3884429931640625,-0.11346435546875,1.7194366455078125,0.36467862920843586,-0.6160332523578923,None
127,7.94,1.009765625,-0.44091796875,0.297027587890625,0.15808482130581322,-0.6824969872167014,None
128,7.99,1.6630859375,-0.0919036865234375,1.1506805419921875,0.02486566131478735,-0.755120431318867,None
129,8.04,1.245574951171875,0.1692352294921875,-0.1493988037109375,-0.2484778050628708,-0.7737928754355282,None
130,8.09,1.2713470458984375,0.034332275390625,-0.025970458984375,-0.3133388826851228,-0.7398763079816811,None
131,8.139,0.3556365966796875,-0.9866790771484375,0.758697509765625,-0.2057983917926698,-0.6679171915908201,None
132,8.189,0.517333984375,-1.9185333251953125,0.7272186279296875,-0.1453732381286093,-0.6873737098742346,None
133,8.239,1.7951202392578125,-1.34326171875,0.9845733642578125,-0.1740837721994986,-0.7556811158594099,None
134,8.289,1.625274658203125,-0.5446319580078125,0.2822113037109375,-0.19982764256992136,-0.759229737847851,None
135,8.339,0.756378173828125,-0.226959228515625,0.354705810546875,-0.14046784558948824,-0.6945726872130058,None
136,8.389,-0.1957244873046875,-0.1992645263671875,-0.0628662109375,-0.3008727259568874,0.6836388555733283,None
137,8.438,-0.1012115478515625,0.0093231201171875,-0.2360382080078125,-0.315093656005877,0.7377707727785939,None
138,8.488,-0.0409698486328125,-0.03759765625,0.096466064453125,-0.29088844246088874,0.7966774727223895,None
139,8.538,-0.0453338623046875,-0.1694793701171875,0.26934814453125,0.8463889429063369,0.14103150795591385,None
140,8.588,0.206817626953125,-0.6368560791015625,0.501708984375,0.6188292949646753,-0.24718179143270233,None
141,8.718,-1.0954437255859375,-2.1210174560546875,1.396881103515625,0.6341271949010623,-0.26517110221912416,None
142,8.767,-0.308258056640625,-0.5200958251953125,0.9368896484375,0.6287118599320634,-0.36740349850210435,None
143,8.817,-0.098114013671875,-0.2776336669921875,0.6413116455078125,0.645441127706477,-0.4639307549338771,None
144,8.867,0.0904541015625,0.005096435546875,0.1847991943359375,0.6582631534639779,-0.5792853385887502,None
145,8.917,0.183563232421875,0.0943603515625,0.0308837890625,0.6502468258538725,-0.6692226019215701,None
146,8.967,0.6078338623046875,-0.0394134521484375,0.1610260009765625,0.6955221133549845,-0.7511746100424569,None
147,9.017,0.8706207275390625,-0.45849609375,0.1775054931640625,0.7360918906383579,-0.790484702085555,None
148,9.067,-0.0169219970703125,-1.0727386474609375,0.6026458740234375,0.7764963600905018,-0.7737483508731636,None
149,9.116,0.181365966796875,-1.7360992431640625,0.9188385009765625,0.7743741796153037,-0.7296052214649911,None
150,9.166,0.287689208984375,-1.078826904296875,0.296356201171875,0.6477584576569663,-0.7050412559667781,None
151,9.216,0.5443115234375,-0.3958892822265625,0.4648590087890625,0.5565282042029767,-0.7084334173805082,None
152,9.266,0.466217041015625,0.0043792724609375,0.6204071044921875,0.5555000116728099,-0.6795024906853626,None
153,9.316,0.5797576904296875,0.181854248046875,0.4271392822265625,0.5662132090133666,-0.6324140818670302,None
154,9.366,0.326446533203125,-0.304595947265625,0.5607147216796875,0.5805552832306448,-0.5493983293962785,None
155,9.485,1.11285400390625,-2.305389404296875,0.640594482421875,0.5095728664660065,-0.7307856963492815,None
156,9.804,-2.3739166259765625,1.616241455078125,0.5543670654296875,0.3106843746251243,-0.9271733694444527,None
157,9.854,0.310455322265625,0.456756591796875,1.669891357421875,0.18539372145058358,-0.9827040818318739,Straight
158,9.904,1.6294403076171875,0.2785797119140625,1.013336181640625,-0.17461853993009863,-0.998511464771401,None
159,9.954,1.571624755859375,-0.358184814453125,0.4952545166015625,-0.4672041571520321,-0.999972501763189,None
160,10.004,1.249481201171875,-0.286956787109375,0.1906585693359375,-0.6109622599414395,-0.9992908690644444,None
161,10.053,0.94110107421875,-0.3368072509765625,-0.0562591552734375,-0.7953670289047216,-0.9992913934129656,None
162,10.103,0.7784576416015625,-0.4776763916015625,0.475128173828125,-0.8926162416755489,-0.9999526425504105,None
163,10.153,0.5669403076171875,-0.83258056640625,-0.24359130859375,-0.2808023312587625,-0.5470734263178882,None
164,10.203,1.0411834716796875,-1.6216888427734375,-0.964813232421875,-0.37802111247591963,-0.531013552514945,None
165,10.253,0.9244537353515625,-1.3428802490234375,-0.499267578125,-0.3557797076637669,-0.5343882827928547,None
166,10.303,0.576507568359375,-0.4982452392578125,-0.1788482666015625,-0.3378496950877964,-0.7365766302774305,None
167,10.353,0.2018585205078125,-0.2725067138671875,0.4005889892578125,0.8268245621503963,-0.3845947761584677,None
168,10.402,-0.0263824462890625,-0.124176025390625,-0.3116912841796875,0.8061031201280376,-0.32658137377070073,None
169,10.452,-0.056427001953125,-0.3465118408203125,-0.4148406982421875,-0.7674826300024015,0.10382943667220124,None
170,10.502,-0.1846923828125,-0.567596435546875,-0.506439208984375,-0.6657646001548343,0.2359416482844001,None
171,10.552,-0.2160491943359375,-0.9612579345703125,-0.4006500244140625,-0.38471837993066577,0.20313285240015694,None
172,10.667,-1.0797882080078125,-2.1771697998046875,0.821044921875,-0.14633301136945703,0.129432676310008,None
173,10.716,-0.704437255859375,-0.8354034423828125,1.2520599365234375,-0.009781687795751573,0.04109093355026192,None
174,10.766,-0.2360076904296875,-0.2876129150390625,0.79925537109375,0.008235958617895051,-0.029580621635107898,None
175,10.816,-0.26727294921875,0.1430511474609375,0.405364990234375,0.0962946707494357,-0.13435707740312386,None
176,10.866,-0.0751190185546875,0.094940185546875,0.6683807373046875,0.15064734540419786,-0.2541729296173115,None
177,10.916,0.229217529296875,0.3133544921875,0.42156982421875,0.10590778899296287,-0.3314257747571456,None
178,10.966,0.6422576904296875,0.093505859375,0.2217254638671875,0.10726393065998689,-0.33605743069815314,None
179,11.015,0.5833587646484375,-0.3608551025390625,0.8446502685546875,0.00464430589175547,-0.269769065590065,None
180,11.065,0.29730224609375,-1.1633758544921875,0.3592681884765625,-0.2190025654661204,-0.12855674378284374,None
181,11.115,-0.4133148193359375,-0.9581146240234375,0.08221435546875,0.08549430168798608,0.3948758014361844,None
182,11.165,-0.09283447265625,-0.3226318359375,-0.1993255615234375,-0.5255939565969454,0.23777133205831305,None
183,11.215,-0.4901885986328125,-0.822723388671875,-0.9521636962890625,-0.6707885052980532,0.34894455448959755,None
184,11.265,-0.470794677734375,-1.3372955322265625,-0.8230133056640625,-0.5689817541533976,0.38923863521903007,None
185,11.315,-0.39324951171875,-1.7350616455078125,-0.32183837890625,-0.4668970330815652,0.389228062177078,None
186,11.409,-0.67987060546875,-1.9951019287109375,0.12554931640625,-0.3043451968790655,0.33052186733560057,None
187,11.459,-0.6451568603515625,-1.165863037109375,0.5940704345703125,-0.10179852189949429,0.20001382625576516,None
188,11.509,-0.34527587890625,-0.407470703125,0.561920166015625,0.8095566390206151,0.4453774784330675,None
189,11.559,0.1646270751953125,-0.253082275390625,0.4517364501953125,0.8856523723457348,0.22256729921515572,None
190,11.609,0.4868316650390625,0.069488525390625,0.1470489501953125,0.9271525930902488,0.009622589592897413,None
191,11.658,0.7094879150390625,0.4056549072265625,-0.0369415283203125,0.9516239304232975,-0.11287122737687474,None
192,11.708,0.551849365234375,0.3560333251953125,-0.3025360107421875,0.9667946243731426,-0.12059361319591057,None
193,11.758,0.4584808349609375,0.022491455078125,-0.220611572265625,0.9686224941651957,-0.00560446245496735,None
194,11.808,0.4776458740234375,-0.4131317138671875,-0.084197998046875,-0.19969907457561678,-0.749703800644771,None
195,12.197,-2.33404541015625,2.3713226318359375,-0.802093505859375,-0.4995896614716678,-0.9225708025328937,Straight
196,12.247,0.7155914306640625,0.2779083251953125,1.09814453125,-0.5550489229344826,-0.9723094948254505,None
197,12.297,1.134979248046875,-0.3883209228515625,0.912872314453125,-0.7011603831684334,-0.9845925552910838,None
198,12.346,1.26763916015625,-0.4245758056640625,0.453125,-0.7775798886805391,-0.9964116157274313,None
199,12.396,1.156768798828125,0.1506805419921875,0.80792236328125,-0.8029192588943994,-0.9999936153727688,None
200,12.446,0.7729339599609375,-0.1569671630859375,0.396087646484375,-0.8305181326847073,-0.9991683375702948,None
201,12.496,0.8186492919921875,-0.735992431640625,1.0204925537109375,-0.7987079543607865,-0.9993836850819138,None
202,12.546,0.483734130859375,-0.9888153076171875,1.1106719970703125,-0.7955655239894986,-0.9999974272199066,None
203,12.596,0.6998443603515625,-1.0032806396484375,1.058807373046875,-0.8157459897626106,-0.9999237973541191,None
204,12.645,0.7648468017578125,-0.4066009521484375,0.438812255859375,-0.8641824045690741,-0.9983104523311817,None
205,12.695,0.573394775390625,-0.0677947998046875,0.0370025634765625,-0.8915653320611904,-0.9938635982466504,None
206,12.745,0.6392974853515625,-0.011322021484375,0.204010009765625,-0.8884196128163772,-0.9895642126828588,None
207,12.795,0.5047760009765625,-0.185760498046875,0.3093109130859375,-0.878206061930363,-0.9908224803117992,None
208,12.845,0.57611083984375,-0.4707489013671875,0.22174072265625,0.4261302828227468,-0.7421021238069,None
209,12.895,0.682952880859375,-0.6193695068359375,0.885711669921875,0.48820709935942863,-0.7198457308026358,None
210,12.945,0.9256439208984375,-0.242431640625,0.9556121826171875,0.5205557941270462,-0.7145036214396366,None
211,12.994,0.932861328125,-0.1056976318359375,0.551055908203125,0.44382394438993605,-0.7242925884364881,None
212,13.044,0.0049591064453125,-1.2052154541015625,0.5564117431640625,0.4391575903114133,-0.6832073366522121,None
213,13.094,0.1214752197265625,-0.69000244140625,0.96282958984375,0.5167392919401657,-0.6664771881624856,None
214,13.144,0.874176025390625,0.2958831787109375,-0.0612335205078125,0.4312510282614259,-0.6938646414896605,None
215,13.194,0.99749755859375,0.5299072265625,0.148590087890625,0.4072267597217084,-0.6507574989373622,None
216,13.244,0.731414794921875,-0.311431884765625,0.764678955078125,0.40617612231204747,-0.538487570062455,None
217,13.333,-0.2672119140625,-2.6278228759765625,0.6972198486328125,0.24675773655625652,-0.6586531864129822,None
218,13.682,-2.6570587158203125,0.7978363037109375,0.822021484375,0.2382315709412183,-0.8192397984146378,None
219,13.732,-0.174560546875,0.2149810791015625,1.218841552734375,0.10236558427545744,-0.8904968267483584,Straight
220,13.782,1.4329833984375,-0.0932769775390625,0.7911529541015625,-0.05313231506181596,-0.9423200021804823,None
221,13.832,1.348419189453125,-0.07940673828125,0.832489013671875,-0.13090907707853217,-0.9578838864156822,None
222,13.882,1.29290771484375,-0.1343231201171875,1.17205810546875,-0.2541067785383344,-0.9682446068379901,None
223,13.931,0.6834716796875,-0.043304443359375,0.193115234375,-0.33177649458914477,-0.965422151249364,None
224,13.981,0.66131591796875,-0.1148529052734375,0.709136962890625,-0.30253055732442863,-0.9528942212733911,None
225,14.031,0.52410888671875,-0.4085540771484375,0.406036376953125,0.704917919828056,-0.6730016219714186,None
226,14.081,0.3537139892578125,-1.3857269287109375,1.0789794921875,0.7379503931731487,-0.5980486813257178,None
227,14.131,0.3836212158203125,-1.4779510498046875,0.7951202392578125,0.7519719513488713,-0.5701469865253809,None
228,14.181,0.6311492919921875,-0.6483612060546875,0.32427978515625,0.44732304443039467,-0.656635770110882,None
229,14.231,0.586517333984375,-0.1708526611328125,0.34283447265625,0.4726248335900547,-0.694920402098692,None
230,14.28,0.6417694091796875,-0.15496826171875,0.5571746826171875,0.5155232725057454,-0.707431376475111,None
231,14.33,0.387237548828125,-0.6423797607421875,0.5953369140625,0.6797404355338676,-0.4043761385072799,None
232,14.38,0.1428375244140625,-0.940155029296875,1.02154541015625,0.7207277884497497,-0.37251901672095206,None
233,14.43,0.48480224609375,-0.639373779296875,0.8039703369140625,0.7067121292756424,-0.3827488681330695,None
234,14.48,0.680877685546875,-0.305267333984375,0.370147705078125,0.6619418586232444,-0.387942826344246,None
235,14.53,0.604949951171875,-0.1034698486328125,0.275909423828125,0.6503408973234508,-0.35345239796042327,None
236,14.579,0.6162109375,-0.0469970703125,0.3458404541015625,0.6493213830427883,-0.3168276051781196,None
237,14.629,0.3406982421875,-0.861358642578125,0.7942657470703125,0.612922934482429,-0.25520657552872283,None
238,14.709,0.04290771484375,-2.2926177978515625,1.794769287109375,0.539995720260574,-0.4211491753145827,None
239,14.759,2.0969390869140625,-0.54058837890625,1.068572998046875,0.5178015769032126,-0.6220916393077143,None
240,15.048,-2.0959320068359375,2.6671142578125,-1.308868408203125,0.35069579262129547,-0.8438238503885162,None
241,15.098,-0.664398193359375,0.2524871826171875,1.4031219482421875,0.41211711340327606,-0.9330158997539194,Straight
242,15.148,0.189849853515625,-0.34747314453125,1.246429443359375,0.33305778574741224,-0.9613492028870763,None
243,15.198,0.9674835205078125,-0.506256103515625,1.0919189453125,0.09615774282851693,-0.9805248381936859,None
244,15.247,1.326171875,-0.6561279296875,1.363433837890625,0.010319230948041588,-0.9899766494395286,None
245,15.297,0.55963134765625,-0.4972686767578125,0.1087493896484375,0.21364413286444522,-0.7397654193450421,None
246,15.347,0.4507904052734375,-0.498382568359375,0.68206787109375,0.8074202451807935,-0.47079745197405787,None
247,15.397,0.2333221435546875,-0.5653839111328125,0.643951416015625,0.7514615419774618,-0.2627122480175372,None
248,15.447,0.306396484375,-0.63861083984375,0.52728271484375,0.636690967884597,-0.3469858360577009,None
249,15.497,0.17041015625,-0.9089813232421875,0.5588836669921875,0.5237646814237003,-0.15770353742356044,None
250,15.546,0.779693603515625,-1.0807647705078125,0.6639862060546875,0.5200037421240049,-0.14211457192613866,None
251,15.596,0.67340087890625,-0.976226806640625,0.6721038818359375,0.5083733878230468,-0.12397507987944728,None
252,15.646,0.6332550048828125,-0.54833984375,0.436767578125,0.623037283264941,-0.6703253022684643,None
253,15.696,0.5890655517578125,-0.351104736328125,0.2717742919921875,0.6118773611965078,-0.6704972867318049,None
254,15.746,0.6512451171875,-0.2011566162109375,0.3039703369140625,0.6202615687438491,-0.6610365311558027,None
255,15.796,0.7505645751953125,-0.1277008056640625,0.4152679443359375,0.6288222209548678,-0.6357102173567035,None
256,15.846,0.5158538818359375,-0.4637908935546875,0.34442138671875,0.5962024180010198,-0.666057024008534,None
257,15.965,0.2694091796875,-2.16455078125,1.0851898193359375,0.514244147484299,-0.8148515813069468,None
258,16.015,1.2986907958984375,-0.4946136474609375,-0.0423431396484375,0.5950559268936885,-0.9181392081894733,None
259,16.364,-2.300201416015625,0.3653411865234375,1.3828887939453125,0.6345211888664647,-0.9666740930527656,None
260,16.414,-0.265289306640625,0.2153778076171875,0.984344482421875,0.5085298921910235,-0.9872539846264938,Straight
261,16.464,0.7770538330078125,-0.3778839111328125,0.7403717041015625,0.35730265028177094,-0.9942856138919952,None
262,16.513,1.1386260986328125,-0.60333251953125,0.8020477294921875,0.23731523890711373,-0.9967538464252816,None
263,16.563,1.05303955078125,-0.68475341796875,0.811920166015625,0.07805322304105543,-0.9964494895035657,None
264,16.613,0.71954345703125,-0.5855255126953125,0.280609130859375,0.43217632225708924,-0.7424192554179279,None
265,16.663,0.6682586669921875,-0.3937835693359375,0.459014892578125,0.4453449484639309,-0.7299944615091657,None
266,16.713,0.38494873046875,-0.4359588623046875,0.342529296875,0.6178106125856966,-0.5703276041094033,None
267,16.763,0.5249176025390625,-0.8720550537109375,0.095489501953125,0.10884878586664357,-0.5134575885849437,None
268,16.813,1.231231689453125,-1.5263214111328125,0.365814208984375,0.13431569313438316,-0.510149614614188,None
269,16.862,0.701873779296875,-1.687408447265625,0.27264404296875,0.19995383358545799,-0.4797315334843522,None
270,16.912,0.866455078125,-0.847747802734375,0.995941162109375,0.2045763746647587,-0.44320657909590067,None
271,16.962,0.19287109375,-0.2033538818359375,0.20440673828125,0.7089301998185404,-0.5559972600892414,None
272,17.012,0.0889892578125,0.034942626953125,0.2645263671875,0.6437664016410338,-0.5106465799133725,None
273,17.062,0.2200164794921875,0.005889892578125,0.076324462890625,0.5703607075440165,-0.4487265162110496,None
274,17.112,-0.10858154296875,-0.4488067626953125,0.111236572265625,0.24057065188227572,0.22860992898538915,None
275,17.161,0.0831756591796875,-0.9222259521484375,0.3114471435546875,0.3199592984547496,-0.08513867569536798,None
276,17.211,0.0720367431640625,-2.0574798583984375,0.24713134765625,0.267091794504077,-0.04965344986643241,None
277,17.296,-0.9962005615234375,-2.416595458984375,0.3212890625,0.34805059712028474,-0.05444422775986313,None
278,17.346,-0.3992156982421875,-0.783935546875,0.7848968505859375,0.3199528268356826,-0.11798887043514474,None
279,17.396,0.23333740234375,-0.104736328125,0.553070068359375,0.29157073336002015,-0.18105351167645986,None
280,17.446,0.2844390869140625,0.2003021240234375,0.1158294677734375,0.30930484357775634,-0.14911044251343872,None
281,17.495,0.2675628662109375,0.1070556640625,0.0946044921875,0.37695488785104525,-0.10563059721448524,None
282,17.545,0.0582275390625,-0.3066864013671875,0.042388916015625,0.13691423996182317,-0.18483180705570304,None
283,17.595,0.1541595458984375,-1.14190673828125,0.253631591796875,0.11716901757816062,-0.11142762786683914,None
284,17.69,-0.59588623046875,-2.0828857421875,0.7287139892578125,0.14052249658407368,-0.045862043690959794,None
285,17.74,-0.177337646484375,-1.274810791015625,0.409454345703125,0.08288202215879979,-0.0060496586243299075,None
286,17.79,-0.096588134765625,-0.678253173828125,0.344573974609375,0.45293277363571277,0.1259513052231203,None
287,17.839,0.1172332763671875,-0.164215087890625,0.477142333984375,0.49034033553576856,0.11743364725344364,None
288,17.889,0.07525634765625,-0.0233306884765625,0.2047576904296875,0.5341064982231509,0.08168663639202833,None
289,17.939,0.04095458984375,-0.193817138671875,0.33831787109375,0.5891589344469299,0.054926394438095494,None
290,17.989,-0.73956298828125,-1.4999542236328125,0.3980712890625,0.6312628270936769,0.0430250495399481,None
291,18.039,-0.102996826171875,-1.7293548583984375,0.48809814453125,0.5844162586594692,-0.09378445385708699,None
292,18.089,-0.22247314453125,-1.5842132568359375,0.0003662109375,0.46238719553711255,-0.18284204779677243,None
293,18.138,-0.5240631103515625,-1.2979736328125,0.62823486328125,0.5038467704146977,-0.16172176430986437,None
294,18.188,-0.559783935546875,-0.6461944580078125,0.669189453125,0.7193582165746133,0.5155982645622181,None
295,18.238,-0.0550079345703125,-0.2332305908203125,0.6087493896484375,0.7576543400714041,0.4786369843665455,None
296,18.288,0.0947418212890625,0.0048675537109375,0.1209259033203125,0.782014296410337,0.4292687613272543,None
297,18.338,0.2596435546875,-0.0779571533203125,0.0845184326171875,0.8196129326197412,0.39908187139081397,None
298,18.388,0.6021728515625,-0.5325164794921875,0.5801849365234375,0.7367237031214748,-0.6074191593669127,None
299,18.438,0.418548583984375,-1.0592803955078125,0.69482421875,0.7379296048219641,-0.6152609749994317,None
300,18.487,0.0538330078125,-1.6329345703125,0.44512939453125,0.6646316281115227,-0.5918127605143042,None
301,18.537,0.18743896484375,-1.6143341064453125,0.42279052734375,0.5690240411526274,-0.5695299997809771,None
302,18.587,0.3839111328125,-1.0357208251953125,0.5838470458984375,0.5566764053997955,-0.5744931953754882,None
303,18.637,0.3450927734375,-0.5263519287109375,0.4234619140625,0.626841225708735,-0.454914774766769,None
304,18.687,0.411529541015625,-0.228240966796875,0.1866302490234375,0.6374920276670474,-0.45410549093038294,None
305,18.737,0.724578857421875,-0.1168060302734375,0.3515472412109375,0.6719627305301326,-0.4549124150264863,None
306,18.786,0.1893310546875,-0.4112548828125,0.3374786376953125,0.6343601239382947,-0.3352863996375766,None
307,18.836,-0.7151031494140625,-1.3906097412109375,0.535797119140625,0.6458062316564286,-0.23369341977962751,None
308,18.906,-0.8578643798828125,-2.0192413330078125,0.6982879638671875,0.6704178310261573,-0.25343565575762583,None
309,18.956,-0.2568359375,-1.5329742431640625,0.7406005859375,0.7135542651404794,-0.33292974979330864,None
310,19.006,0.688934326171875,-1.062591552734375,0.8255615234375,0.817479662997691,-0.4394511751516721,None
311,19.056,2.0068359375,-0.8692169189453125,1.1968536376953125,0.9184485431115026,-0.5389323223887702,None
312,19.235,-4.13848876953125,-1.977203369140625,-1.5519561767578125,0.7478053261440935,0.08003277762193363,None
313,19.315,-1.976806640625,1.95257568359375,-0.69000244140625,0.6133579831658308,-0.14846529932121338,Straight
314,19.365,-0.7979736328125,0.5899810791015625,0.906280517578125,0.5726328726911409,-0.29733793741578807,None
315,19.414,0.16925048828125,-0.099365234375,1.2393951416015625,0.4679939437268414,-0.37860929636476387,None
316,19.464,1.02777099609375,-0.531951904296875,0.7951202392578125,0.27345769435382933,-0.4357676564794336,None
317,19.514,1.30438232421875,-0.5353851318359375,0.301422119140625,0.09841019425055353,-0.47988653806844855,None
318,19.564,1.190521240234375,-0.2386474609375,0.12896728515625,-0.03052609629660088,-0.5158289214936959,None
319,19.614,1.179595947265625,0.025604248046875,0.77001953125,-0.04095439250528325,-0.5047777554220276,None
320,19.664,0.31451416015625,-0.5965728759765625,0.56427001953125,0.6871640715000469,-0.35767529353313016,None
321,19.714,0.884674072265625,-1.54315185546875,0.5778350830078125,0.6896049412355457,-0.3328684755374989,None
322,19.783,0.403472900390625,-2.083038330078125,1.1428070068359375,0.7290265146837996,-0.2927316175525876,None
323,19.833,0.7715606689453125,-0.9076385498046875,0.9750213623046875,0.7382104818489625,-0.30169450565742945,None
324,19.883,0.4525604248046875,-0.1042938232421875,-0.0107269287109375,0.6416858196419613,-0.29812298742196464,None
325,19.933,0.244232177734375,0.0823516845703125,-0.01519775390625,0.6107790305595481,-0.2568132091367857,None
326,19.983,0.034759521484375,-0.0203857421875,0.3128204345703125,0.6518213472822734,-0.1952695909475632,None
327,20.033,0.050201416015625,-0.15924072265625,0.4021148681640625,0.6905343759813914,-0.14755863176543269,None
328,20.082,0.1056671142578125,-0.6381988525390625,0.719390869140625,0.7480593926785306,-0.10922072275711406,None
329,20.132,-0.544036865234375,-1.738861083984375,0.8216094970703125,0.7560182598028989,-0.05395069055030997,None
330,20.202,-1.0193939208984375,-1.9980926513671875,1.6467742919921875,0.7607811000654094,-0.08896686014575518,None
331,20.252,-0.154510498046875,-0.6824798583984375,0.7789154052734375,0.7521320225895312,0.14756423551233305,None
332,20.302,0.1713409423828125,-0.1190643310546875,0.523040771484375,0.7861594826434319,0.10194932520106557,None
333,20.352,0.2202606201171875,0.10821533203125,0.4850616455078125,0.8242212049092599,0.05961624754650565,None
334,20.401,0.53515625,0.183929443359375,0.24737548828125,0.8345304310485959,0.03583588264067875,None
335,20.451,0.3494110107421875,-0.623138427734375,0.5786285400390625,0.680451099367278,-0.38006397223480487,None
336,20.531,-0.8637542724609375,-2.0673370361328125,0.9958343505859375,0.6786049104347947,-0.3462357405973491,None
337,20.581,0.5502777099609375,-0.573455810546875,0.3829498291015625,0.5553485508412987,-0.6237438243666013,None
338,20.631,1.1269989013671875,0.4344024658203125,0.16949462890625,0.47727338543199194,-0.6951879349270202,None
339,20.681,1.156951904296875,0.4239501953125,0.6553497314453125,0.5006932556259756,-0.6915315137553862,None
340,20.73,-0.0690765380859375,-1.98046875,0.62164306640625,0.5242119757081877,-0.6234249109034831,None
341,20.8,0.30169677734375,-2.7726898193359375,0.63751220703125,0.44447892448232484,-0.76721301282419,None
342,21.013,-8.24151611328125,-2.5724334716796875,-2.7311248779296875,0.21652727526670412,-0.33208172407449604,None
343,21.088,-4.5105743408203125,1.1155242919921875,-0.2482452392578125,0.4349039601859126,-0.4053519123150018,None
344,21.139,-1.620391845703125,0.94403076171875,1.0058135986328125,0.38930381165136885,-0.5783207401584639,Straight
345,21.189,-0.0922088623046875,0.0354156494140625,1.1703643798828125,0.23948068576888326,-0.6484112314646806,None
346,21.239,0.7913665771484375,-0.241790771484375,0.67919921875,0.02465081041454414,-0.7192055427275363,None
347,21.289,1.6712646484375,-0.32586669921875,1.1731109619140625,-0.15307873373019154,-0.7506122181243984,None
348,21.339,1.63092041015625,-0.2696685791015625,0.49664306640625,-0.27175903934350626,-0.7763938308799876,None
349,21.388,1.0289306640625,-0.729461669921875,0.81256103515625,-0.27278587759636214,-0.7373559045756075,None
350,21.438,0.85931396484375,-1.2022705078125,0.777496337890625,-0.24925653482328194,-0.7089205852222725,None
351,21.488,0.264678955078125,-1.4449920654296875,0.49725341796875,-0.22793440885053548,-0.6950783706693409,None
352,21.538,0.4956817626953125,-0.5527496337890625,0.3311614990234375,0.5139384579616544,-0.6097262578429561,None
353,21.588,0.9244537353515625,0.2697296142578125,0.0100860595703125,0.5264205171589951,-0.5761378748569848,None
354,21.638,0.7357025146484375,0.2276153564453125,0.0577392578125,0.5787368132047026,-0.49435938319455236,None
355,21.687,0.663787841796875,-0.412109375,0.629486083984375,0.5421102992872348,-0.3819011057672216,None
356,21.787,0.0302581787109375,-2.4931640625,1.3194122314453125,0.4717662203562812,-0.5540530758442148,None
357,21.837,1.9057464599609375,-0.0277099609375,0.32293701171875,0.5537919431745273,-0.6848112658254106,None
358,22.056,-6.2855987548828125,-3.9628143310546875,-1.544219970703125,0.3425941839459652,-0.276198312885121,None
359,22.166,-2.473541259765625,0.7023773193359375,0.7245941162109375,0.2034737252831788,-0.4774736401588439,None
360,22.216,-0.06756591796875,0.3011627197265625,1.5744781494140625,0.1406787880102453,-0.618153772754021,Straight
361,22.266,0.8048553466796875,-0.1878509521484375,0.854034423828125,-0.05265874215192092,-0.6649109512866267,None
362,22.315,0.8745269775390625,-0.633209228515625,0.53131103515625,-0.24430600398127617,-0.6732493492797976,None
363,22.365,0.79364013671875,-1.03289794921875,0.7215423583984375,-0.4110659304979525,-0.6695101894525373,None
364,22.415,0.428497314453125,-1.00341796875,-0.3778533935546875,-0.6205718815192323,-0.6672291632464484,None
365,22.465,0.552001953125,-0.8588409423828125,0.6223602294921875,-0.6946117468267421,-0.6740118818563886,None
366,22.515,0.54742431640625,-0.5564422607421875,-0.0305023193359375,-0.05473451024962439,-0.7007719018296458,None
367,22.565,0.55419921875,-0.612518310546875,-0.5345306396484375,-0.6575127436772713,-0.5632738677782058,None
368,22.615,0.4217529296875,-0.7825927734375,-0.9171600341796875,-0.7337848888771288,-0.5532731709563588,None
369,22.664,0.5974578857421875,-1.0126800537109375,-0.469390869140625,-0.7440698921056413,-0.5538175954028112,None
370,22.714,0.448822021484375,-0.9359130859375,-1.039947509765625,-0.7583607583338678,-0.5583836125137577,None
371,22.764,0.390777587890625,-0.7605438232421875,-0.4113311767578125,-0.47571966203057986,-0.4118408504572434,None
372,22.814,0.2765655517578125,-0.587188720703125,-0.1799774169921875,-0.29305036575460813,-0.4106081735692984,None
373,22.864,0.253326416015625,-0.5731964111328125,-0.1438751220703125,-0.2434528712897659,-0.3939855552704736,None
374,22.914,0.258087158203125,-0.570953369140625,-0.1902923583984375,-0.3161897347626472,-0.394125922537429,None
375,22.963,0.0649566650390625,-0.729583740234375,-0.691619873046875,-0.6879727984615851,-0.06447967256059517,None
376,23.013,0.1289520263671875,-1.1316070556640625,-0.9640655517578125,-0.6415847634805504,-0.08308731178366842,None
377,23.063,-0.2998046875,-1.312408447265625,-0.84149169921875,-0.5682652972727738,-0.07507845818306846,None
378,23.113,0.1996307373046875,-0.9798126220703125,-0.1666259765625,-0.16765204621729107,-0.1969268434712363,None
379,23.163,0.253082275390625,-0.824493408203125,0.1709136962890625,0.20298010929774046,-0.28784422062456955,None
380,23.213,0.06292724609375,-0.701080322265625,0.1449127197265625,0.20242023800529507,-0.08756183421144972,None
381,23.263,0.075225830078125,-0.6701507568359375,0.0872955322265625,0.12917122886969865,-0.11062843708071898,None
382,23.312,-0.173980712890625,-1.0796966552734375,-0.401519775390625,0.10333486309634664,-0.06526584477295078,None
383,23.362,-0.2544403076171875,-1.5635833740234375,-0.290771484375,0.15167136207265394,-0.04063209871713577,None
384,23.412,-0.694732666015625,-1.5479583740234375,0.0888519287109375,0.287595158219338,-0.023684886123015215,None
385,23.462,-0.3838348388671875,-1.052642822265625,0.876922607421875,0.44909995517056606,-0.04496378993581911,None
386,23.512,-0.2944183349609375,-0.7018585205078125,0.6626434326171875,0.6865014419103402,0.291748813791402,None
387,23.562,-0.0841064453125,-0.4643096923828125,0.699676513671875,0.8332253605552127,0.0996613781716347,None
388,23.611,-0.2496185302734375,-0.589630126953125,0.7681427001953125,0.7932468444525977,0.24961649526703308,None
389,23.661,-0.2078857421875,-0.78125,0.7272186279296875,0.681342208046258,0.19117880528383646,None
390,23.711,-0.354217529296875,-0.99493408203125,0.4693145751953125,0.6778036887106363,0.18623707309012588,None
391,23.761,-0.14715576171875,-0.9625396728515625,0.68536376953125,0.6851300570021805,0.17120496828676215,None
392,23.811,0.0313720703125,-1.0501556396484375,0.3237152099609375,0.29457659906133715,-0.028536546632635,None
393,23.861,0.3736114501953125,-0.471710205078125,0.12139892578125,0.24923748798140305,-0.6086186995625754,None
394,23.911,0.91448974609375,-0.0737152099609375,0.19873046875,0.28202649854620526,-0.6253727268133898,None
395,23.96,0.75628662109375,-0.58074951171875,0.267974853515625,0.41897648011737715,-0.7635559277969542,None
396,24.01,0.1660919189453125,-1.535430908203125,0.2886810302734375,0.4502086530327824,-0.6866855886696923,None
397,24.06,-0.1694488525390625,-1.3113861083984375,0.107818603515625,0.4434159713037352,-0.62228079197907,None
398,24.11,0.3460235595703125,-0.68731689453125,0.2628021240234375,0.35714278729586163,-0.42553831001426534,None
399,24.16,0.4811248779296875,-0.5092315673828125,0.4014434814453125,0.6190917458623981,-0.5958666351232274,None
400,24.21,0.4596099853515625,-0.5645904541015625,0.3406524658203125,0.5166108598186894,-0.5718170782583286,None
401,24.259,0.407958984375,-0.5689239501953125,0.3627166748046875,0.5375864837126884,-0.5174127337337543,None
402,24.309,0.54150390625,-0.2541351318359375,0.260498046875,0.5679460498204401,-0.4338812610481383,None
403,24.359,0.512969970703125,-0.231109619140625,0.425933837890625,0.5899123236655829,-0.33087655886934664,None
404,24.409,-0.9012451171875,-2.23284912109375,0.3110198974609375,0.5401618245772559,-0.19058054233370572,None
405,24.479,0.6769256591796875,-2.3321685791015625,0.756439208984375,0.497882581985863,-0.33978036465015576,None
406,24.728,-3.900543212890625,-1.6411895751953125,-1.9666290283203125,0.6431033869193667,-0.27894711954318974,None
407,24.838,-2.0598907470703125,1.3543243408203125,0.57757568359375,0.5569119069371173,-0.4320204765420504,Straight
408,24.888,-0.214111328125,0.3054656982421875,0.9598388671875,0.3655951567642718,-0.5091758695857359,None
409,24.937,0.553375244140625,-0.4645538330078125,0.536590576171875,0.7560315982209947,-0.6148750953746462,None
410,24.987,1.2836456298828125,-0.4864349365234375,0.8716583251953125,0.629794008075067,-0.669504188502973,None
411,25.037,1.3382720947265625,-0.5594482421875,0.345947265625,0.5025713333908673,-0.6964615055636217,None
412,25.087,1.0231475830078125,-0.3411407470703125,0.19134521484375,0.4911930874168774,-0.6942916599930914,None
413,25.137,1.116058349609375,-0.4618377685546875,1.236968994140625,0.5183336924094484,-0.6782189226166904,None
414,25.187,-0.25750732421875,-1.142913818359375,0.4449462890625,0.48227139928566437,-0.5903231628792069,None
415,25.236,-0.087921142578125,-1.4388275146484375,0.85430908203125,0.5540516414616707,-0.5956775223163165,None
416,25.286,0.13616943359375,-1.27911376953125,0.6844024658203125,0.5498702389055444,-0.6075572027653983,None
417,25.336,0.36395263671875,-0.77813720703125,0.4184112548828125,0.47358581365568614,-0.3808930572776713,None
418,25.386,0.7212677001953125,-0.1579742431640625,0.2291717529296875,0.4289854917987958,-0.40885949623568213,None
419,25.436,0.8161163330078125,0.1762542724609375,0.1036529541015625,0.39329020065634757,-0.3864736082587235,None
420,25.486,0.75421142578125,-0.007476806640625,0.3260498046875,0.39811819081401084,-0.3228757322980093,None
421,25.535,0.15338134765625,-1.4253387451171875,0.6652069091796875,0.3484417538239938,-0.2336335079844985,None
422,25.62,0.3089752197265625,-2.393707275390625,1.110504150390625,0.2726363513717562,-0.4082230605916708,None
423,25.77,2.1809539794921875,0.930877685546875,0.8442535400390625,0.5362679700610632,-0.38871049273699393,None
424,25.884,-4.212371826171875,-1.9470977783203125,-2.0916900634765625,0.41805703791892956,-0.31793853937804073,None
425,25.984,-1.9683837890625,0.5883331298828125,0.05792236328125,0.308559985004032,-0.45593701949075577,None
426,26.034,-1.0736236572265625,-0.042236328125,1.1112823486328125,0.2784192545472945,-0.5131865095552685,Straight
427,26.084,-0.44964599609375,-0.34649658203125,1.420501708984375,0.2086249537903476,-0.5869883313903961,None
428,26.134,0.4468994140625,-0.424652099609375,0.6337738037109375,0.04288788989930108,-0.6669851066053802,None
429,26.183,1.2342071533203125,-0.2228851318359375,0.9006195068359375,-0.10610531248165536,-0.7377799977594588,None
430,26.233,1.1687774658203125,-0.22027587890625,0.7823638916015625,-0.2620891066940236,-0.7512979464498768,None
431,26.283,0.9315338134765625,-0.3099822998046875,0.721923828125,-0.3995973285645617,-0.7583256430683336,None
432,26.333,0.69488525390625,-0.4443206787109375,0.577789306640625,-0.42364375945575344,-0.7343263203680246,None
433,26.383,0.29339599609375,-0.584442138671875,0.5934600830078125,0.7124994649481876,-0.3322377739103499,None
434,26.433,-0.26165771484375,-1.001922607421875,0.3387298583984375,0.32027174795236285,0.24015893419956713,None
435,26.483,-0.2418060302734375,-1.5196075439453125,0.6906280517578125,0.36989211697002,0.292950262976609,None
436,26.532,0.2005767822265625,-1.3066558837890625,0.602813720703125,0.35222976349160756,0.2915191699033967,None
437,26.582,0.3720855712890625,-0.82989501953125,0.234344482421875,0.27175182051635394,-0.39617420472749,None
438,26.632,0.546966552734375,-0.3987274169921875,0.27606201171875,0.5692377922459516,-0.7482406195079222,None
439,26.682,0.758941650390625,-0.1665496826171875,0.394195556640625,0.580076133169772,-0.7439320766995897,None
440,26.732,0.6741790771484375,-0.50933837890625,0.708587646484375,0.5508105976760812,-0.6857730246162432,None
441,26.782,0.02630615234375,-1.2371826171875,0.853729248046875,0.37931425885102177,-0.6319074857525875,None
442,26.831,-0.838348388671875,-1.635101318359375,-0.081329345703125,0.147748658454467,-0.587396082508144,None
443,26.881,-0.8499908447265625,-1.3974456787109375,-0.3233642578125,0.0475812434828402,-0.5942294496970713,None
444,26.931,-0.5537261962890625,-1.13226318359375,-0.203704833984375,-0.02897085319746223,-0.6072743339635204,None
445,26.981,-0.2969207763671875,-0.9082183837890625,-0.086944580078125,-0.09529525205801398,0.3094634494409908,None
446,27.031,-0.2751922607421875,-0.7714385986328125,-0.0821533203125,-0.1058948818870158,0.33431074193939675,None
447,27.081,-0.2205352783203125,-0.6448516845703125,-0.0919342041015625,-0.14113930614137618,0.3206886488735728,None
448,27.131,-0.162506103515625,-0.635528564453125,-0.10540771484375,-0.16362305909605318,0.24459402856473764,None
449,27.18,-0.32415771484375,-0.8513031005859375,-0.2601165771484375,-0.29221461611042043,0.3421762175877571,None
450,27.23,-0.5289764404296875,-0.950531005859375,-0.6616363525390625,-0.38224153333072797,0.35084525254622567,None
451,27.28,-0.482635498046875,-0.9026031494140625,-0.7418060302734375,-0.43497009254933894,0.348424316214061,None
452,27.33,-0.3244781494140625,-0.9586181640625,-0.4798431396484375,-0.42425017605758203,0.3426181909088253,None
453,27.38,-0.21099853515625,-0.9015350341796875,-0.2836456298828125,-0.3001212965121474,0.2178903871603515,None
454,27.43,-0.057769775390625,-0.8091888427734375,-0.43450927734375,-0.4730800740928802,0.06277387086628802,None
455,27.479,0.0120697021484375,-0.7141571044921875,-0.44891357421875,-0.5321841409131206,-0.014307089386652929,None
456,27.529,-0.1162261962890625,-0.6988067626953125,-0.332305908203125,-0.42944975475784325,0.14853668510100637,None
457,27.579,-0.13067626953125,-0.78643798828125,0.0559844970703125,0.07100773344659124,0.16351209432929126,None
458,27.629,-0.0894012451171875,-0.9923248291015625,0.35028076171875,0.3328610742303846,0.08465033539491902,None
459,27.679,-0.0132904052734375,-1.3280792236328125,0.31671142578125,0.4953087069101363,0.06719614333989041,None
460,27.729,0.1658935546875,-1.340301513671875,0.9201507568359375,0.6556035959584892,0.04360553922011824,None
461,27.779,0.4277801513671875,-0.79437255859375,1.0467376708984375,0.6670285856465455,-0.02192471221599672,None
462,27.828,0.6421051025390625,-0.17681884765625,0.6222381591796875,0.6604106131567689,-0.09180017417859317,None
463,27.878,0.3740692138671875,-0.3641357421875,0.5337371826171875,0.6559362570955635,-0.10689744328565343,None
464,27.928,-0.50103759765625,-1.304718017578125,0.421722412109375,0.6698814297317869,-0.09419263839089448,None
465,27.978,-0.098358154296875,-0.8902740478515625,0.6851806640625,0.6849900391860947,-0.14409303996116937,None
466,28.028,0.643310546875,-0.2476348876953125,0.38543701171875,0.6168396796246658,-0.1844578549321046,None
467,28.078,0.9911346435546875,0.094482421875,-0.17144775390625,0.5784267842546132,-0.1752902331540436,None
468,28.127,0.6400604248046875,-0.2746124267578125,-0.0418701171875,0.5588957162266753,-0.09770012957624437,None
469,28.227,0.1116943359375,-2.0945587158203125,1.6850128173828125,0.6026807744648232,-0.3042159969603908,None
470,28.277,2.1593475341796875,0.9331207275390625,1.434814453125,0.6937489553592221,-0.4730187149387944,None
471,28.387,2.212615966796875,0.422760009765625,0.9596405029296875,0.9013295309624028,-0.2791900278941287,None
472,28.506,-3.79632568359375,-1.685150146484375,0.4342498779296875,0.8961708902000708,0.14179974544796708,None
473,28.626,-2.2104034423828125,0.9197845458984375,1.11236572265625,0.8292397279523555,-0.016046533941694842,Straight
474,28.676,-0.3395538330078125,0.1866607666015625,1.2675018310546875,0.6479330639069703,-0.13157198257547945,None
475,28.726,1.06939697265625,-0.22540283203125,0.1851806640625,0.4354320728120724,-0.22538480669401278,None
476,28.775,1.2880706787109375,-0.3608245849609375,0.4913330078125,0.35722808349801827,-0.2560383375707493,None
477,28.825,0.9722747802734375,-0.506561279296875,0.0629119873046875,0.23893631014449185,-0.20952967289629196,None
478,28.875,0.65972900390625,-0.6075592041015625,-0.1949920654296875,-0.3055903746098888,-0.7188004568700029,None
479,28.925,0.592742919921875,-0.6611785888671875,0.7104949951171875,-0.2605199087365471,-0.6674082362458171,None
480,28.975,0.1659088134765625,-0.681610107421875,0.1733245849609375,0.24644402647932998,-0.2295978790459887,None
481,29.025,-0.05780029296875,-1.1043548583984375,0.6431732177734375,0.26974458951444974,-0.14577435026716495,None
482,29.074,-0.4412689208984375,-1.8140106201171875,0.6844024658203125,0.25244866859662257,-0.10674828410738035,None
483,29.124,0.128082275390625,-1.5014190673828125,0.5388336181640625,0.1989426989641074,-0.12291020845175285,None
484,29.174,0.413482666015625,-0.9662322998046875,0.32232666015625,0.31644797076992703,-0.37613163818019313,None
485,29.224,0.4968414306640625,-0.55633544921875,0.2675628662109375,0.4334179802078366,-0.626982073450268,None
486,29.274,0.3587188720703125,-0.385406494140625,0.4713592529296875,0.7741593606249201,-0.5076113062798724,None
487,29.324,-0.1255035400390625,-0.7686004638671875,0.1509246826171875,0.19268333871739846,0.15821052333186084,None
488,29.374,-0.4019927978515625,-1.262969970703125,0.678466796875,0.2829698536391731,0.1696196127401575,None
489,29.423,-0.296234130859375,-1.2313995361328125,0.6316375732421875,0.30068018429129223,0.14758851001004358,None
490,29.473,0.0556640625,-0.898193359375,0.47283935546875,0.465828213054649,-0.05475641767034927,None
491,29.523,0.3433990478515625,-0.7946929931640625,0.44061279296875,0.48489992580696706,-0.35351287643943885,None
492,29.573,0.507415771484375,-0.6703338623046875,0.5117340087890625,0.6067957766305283,-0.5155509189341558,None
493,29.623,0.4752960205078125,-0.3672943115234375,0.2900543212890625,0.6197563352813941,-0.7125445522844782,None
494,29.673,0.4064483642578125,-0.2122955322265625,0.121337890625,0.6141317833000897,-0.6806362808662612,None
495,29.722,0.0485687255859375,-0.429351806640625,0.2154388427734375,0.4484837263944288,-0.10059371850962681,None
496,29.772,-0.3311920166015625,-1.4468841552734375,0.3723602294921875,0.404871241489113,-0.05588677014949988,None
497,29.872,0.94622802734375,-2.01708984375,0.488677978515625,0.3429761115190586,-0.17112292569465812,None
498,29.922,1.49212646484375,-0.827392578125,0.374298095703125,0.5037767761330512,-0.2355099113548304,None
499,30.041,2.28375244140625,0.7143402099609375,0.5304718017578125,0.7806209806605318,-0.18520163508764118,None
500,30.151,-4.8242034912109375,-1.755279541015625,-1.65423583984375,0.811325030269916,0.283790625394015,None
501,30.271,-2.06500244140625,1.521331787109375,0.83782958984375,0.7588723463152558,0.06483839593852753,None
502,30.321,-0.3848114013671875,0.055084228515625,1.207550048828125,0.6549578580826245,-0.08165492097852352,Straight
503,30.37,0.90863037109375,-0.43756103515625,0.729583740234375,0.4967481848065823,-0.21145152753726704,None
504,30.42,1.277496337890625,-0.5468597412109375,0.610076904296875,0.31180911992105015,-0.2758336937377589,None
505,30.47,1.4267120361328125,-0.367095947265625,0.720245361328125,0.08857855644133977,-0.3324459245749787,None
506,30.52,1.1128997802734375,-0.240875244140625,-0.388946533203125,-0.08906110426229523,-0.34943053494098975,None
507,30.57,0.7641754150390625,-0.465087890625,0.3130950927734375,-0.06395640706001064,-0.29249746556926454,None
508,30.62,0.3281402587890625,-0.630126953125,0.3638458251953125,0.5000431455358878,-0.4111014118866327,None
509,30.67,0.12359619140625,-1.4338531494140625,0.501495361328125,0.5340548078752637,-0.3475217185666149,None
510,30.749,1.0877532958984375,-1.94512939453125,-0.0042877197265625,0.5256415267223359,-0.3676895403239143,None
511,30.799,0.7516021728515625,-1.0355377197265625,0.5573577880859375,0.5730470373773157,-0.3591629422622436,None
512,30.849,0.6320037841796875,-0.1046295166015625,0.2625732421875,0.5551756796981354,-0.379379922544892,None
513,30.899,0.22210693359375,0.297271728515625,-0.3348846435546875,0.5100052191888006,-0.3775151003855037,None
514,30.949,-0.1366729736328125,0.050079345703125,-0.01336669921875,0.48175483670903274,-0.3057595199685769,None
515,30.998,-0.039947509765625,0.135955810546875,0.0492706298828125,0.48317386704552256,-0.21650278169109657,None
516,31.048,-0.50128173828125,-0.52899169921875,0.1722412109375,0.3096045024593885,0.6693983007053115,None
517,31.098,-1.429901123046875,-1.9856109619140625,0.512359619140625,0.3320111677486956,0.7575495385139919,None
518,31.203,-1.791351318359375,-2.1369781494140625,0.5443115234375,0.29159078860497645,0.6984660143940726,None
519,31.253,-0.656341552734375,-0.7660980224609375,0.6551513671875,0.31264240525284637,0.620352698118652,None
520,31.303,0.0362701416015625,-0.101287841796875,0.477081298828125,0.29571688088236797,0.5510186000049498,None
521,31.352,0.1316375732421875,0.1673126220703125,0.10833740234375,0.3176485156973274,0.48775522421781226,None
522,31.402,0.163177490234375,0.1904449462890625,0.1837310791015625,0.3518962949763966,0.44402706430947,None
523,31.452,0.19976806640625,-0.16888427734375,0.113250732421875,0.5569493760057641,-0.7008115727275771,None
524,31.502,0.367156982421875,-1.30621337890625,0.2096099853515625,0.5985792674545447,-0.7117791474078784,None
525,31.567,0.2250823974609375,-1.9264678955078125,0.5754547119140625,0.6350974488115531,-0.7202768999699692,None
526,31.617,0.2547454833984375,-1.0417633056640625,0.457977294921875,0.5912574361522048,-0.7067597524031095,None
527,31.666,0.3013763427734375,-0.332672119140625,-0.0141143798828125,-0.0423891655456321,-0.6710559545020535,None
528,31.716,-0.017547607421875,0.049835205078125,0.1248321533203125,0.002984114862510773,-0.6060697624664241,None
529,31.766,-0.016387939453125,0.075164794921875,0.5021514892578125,0.041631954306441406,-0.5439467664761527,None
530,31.816,-0.2257537841796875,-0.24951171875,0.46051025390625,0.015771072749198603,-0.44987396143926894,None
531,31.866,-0.6060638427734375,-1.07403564453125,0.73712158203125,-0.011745792899806493,-0.39384455218714337,None
532,31.965,-1.682952880859375,-2.0005645751953125,0.811737060546875,0.03958195073051286,-0.3951691874840736,None
533,32.015,-1.274505615234375,-1.373260498046875,0.9671783447265625,0.02105940983736065,-0.4392609737901755,None
534,32.065,-0.6284332275390625,-0.6395111083984375,0.4366302490234375,0.5638656102474722,0.6301531346540721,None
535,32.115,-0.014892578125,-0.09954833984375,0.431396484375,0.6083526138469013,0.5309376024691929,None
536,32.165,0.38580322265625,-0.0810699462890625,0.37554931640625,0.6307434729472214,0.4651128063739288,None
537,32.215,0.7843475341796875,-0.0306243896484375,0.1003875732421875,0.6137497361292721,0.4087769742903944,None
538,32.265,-0.35589599609375,-1.5782928466796875,0.1001434326171875,0.6256469617056597,0.4314363618577981,None
539,32.314,-0.664825439453125,-2.2076873779296875,0.6229095458984375,0.6652045352928231,0.36117774622194265,None
540,32.364,0.0609283447265625,-0.7689666748046875,0.2592926025390625,0.3195201530242785,-0.07486983341673514,None
541,32.414,0.5515899658203125,0.2010040283203125,0.237518310546875,0.30968792717387444,-0.18367813081282813,None
542,32.464,1.1723785400390625,0.877410888671875,0.099029541015625,0.286502740305772,-0.22933119191492798,None
543,32.514,0.663421630859375,-0.6234893798828125,0.3896942138671875,0.5300119980356247,-0.6699079822127119,None
544,32.594,0.81097412109375,-2.2283782958984375,1.4985809326171875,0.5814837546612006,-0.6642028272822929,None
545,32.942,-2.1215057373046875,0.547760009765625,0.3044281005859375,0.441108156714437,-0.8594240541761831,Straight
546,32.992,0.5294189453125,0.4326934814453125,0.977294921875,0.43621133333997963,-0.94978509965366,None
547,33.042,1.266571044921875,-0.050872802734375,-0.0714569091796875,0.15518361140588147,-0.9756384426228075,None
548,33.092,1.4707489013671875,-0.158447265625,0.781494140625,0.026851646052673782,-0.9810277197398268,None
549,33.142,1.573577880859375,-0.0523834228515625,0.2908172607421875,-0.1577944354315809,-0.9774818951269517,None
550,33.192,0.5194091796875,-0.6262054443359375,0.0758209228515625,0.12020205189340216,-0.6356665383448922,None
551,33.341,0.3715972900390625,-2.0189056396484375,0.7087554931640625,0.1515467613920028,-0.6615216117380551,None
552,33.391,0.7967376708984375,-0.8767852783203125,0.3883209228515625,0.20879512068405287,-0.7104233149852656,None
553,33.441,0.494384765625,-0.273681640625,-0.4211883544921875,0.14418904914903632,-0.7270646211774086,None
554,33.491,0.48388671875,0.2547607421875,-0.055633544921875,0.1552624763115546,-0.7399670286542667,None
555,33.541,0.2200775146484375,0.376434326171875,0.25018310546875,0.18369741775605192,-0.7262912033416745,None
556,33.59,0.2026214599609375,0.1975860595703125,0.389862060546875,0.2191550574785861,-0.6916832792155181,None
557,33.64,-0.0358734130859375,-0.6344757080078125,0.3267974853515625,0.45789719609033913,0.05020119324458521,None
558,33.76,-0.8571319580078125,-2.0461273193359375,0.8096923828125,0.32776988342233665,-0.005123793952598255,None
559,33.81,-0.35693359375,-0.9027862548828125,0.74884033203125,0.34206557421292466,-0.10901793884091962,None
560,33.86,0.022857666015625,-0.166961669921875,0.742156982421875,0.3400934590906542,-0.2166600180695666,None
561,33.909,0.1483154296875,0.127838134765625,0.23345947265625,0.3547632100721641,-0.2951073331444989,None
562,33.959,0.2272796630859375,0.264007568359375,0.388702392578125,0.4230868451061399,-0.3564190162091034,None
563,34.009,0.4819488525390625,0.3247222900390625,0.41290283203125,0.46523547696102246,-0.3754256204651579,None
564,34.059,0.4758758544921875,-0.383819580078125,0.4843902587890625,0.5230604611268765,-0.31961019150395353,None
565,34.159,-0.0918121337890625,-2.0616302490234375,1.0143280029296875,0.4264682664660165,-0.3592481581116401,None
566,34.208,0.4465789794921875,-0.746978759765625,0.3251190185546875,0.3990829066103027,-0.48068945136353747,None
567,34.258,0.4848480224609375,0.0876922607421875,0.32080078125,0.39747137545479366,-0.5589785261675538,None
568,34.308,0.7834625244140625,0.632293701171875,0.2108001708984375,0.3797058386123743,-0.5781233068273633,None
569,34.358,0.4053497314453125,0.497406005859375,0.03009033203125,0.4144751936423721,-0.5152348059504184,None
570,34.408,0.4498291015625,-0.9003753662109375,0.8150634765625,0.37021069723217703,-0.43817355873804564,None
571,34.498,0.833740234375,-2.47845458984375,1.2094879150390625,0.3826080976086959,-0.6262965986306741,None
572,34.547,2.023651123046875,0.4050445556640625,0.8321075439453125,0.4851332708369928,-0.7598449573428068,None
573,34.856,-2.1935272216796875,1.4197845458984375,-0.6778717041015625,0.3868995449781831,-0.876502917656342,Straight
574,34.906,0.16815185546875,0.049957275390625,0.9078826904296875,0.32234109542918316,-0.9169678274574189,None
575,34.956,0.895294189453125,-0.3591156005859375,0.8326873779296875,0.09037773999879536,-0.9463562872268071,None
576,35.006,1.7154541015625,-0.522247314453125,0.7491455078125,-0.08922056127059379,-0.9681371025747046,None
577,35.056,1.54290771484375,-0.3942413330078125,-0.002685546875,-0.3048631333208402,-0.9708684473508111,None
578,35.106,1.1490936279296875,-0.36822509765625,-0.648406982421875,-0.4033736230107749,-0.9474303440591876,None
579,35.156,0.488677978515625,-0.5122222900390625,0.528350830078125,0.7179804644424076,-0.5532009759140142,None
580,35.205,0.06787109375,-0.9520416259765625,1.0863494873046875,0.7484356397507478,-0.4718576460911867,None
581,35.255,-0.1060333251953125,-1.7417755126953125,0.741180419921875,0.7454977636321227,-0.4489574266067493,None
582,35.34,0.3716278076171875,-2.0331878662109375,0.3018341064453125,0.770192095982351,-0.47560412623800147,None
583,35.39,0.74908447265625,-0.9596405029296875,0.5016021728515625,0.7618592009115345,-0.46682212648504967,None
584,35.44,0.4089202880859375,-0.20965576171875,0.0471649169921875,0.732367754690285,-0.4433502839310832,None
585,35.49,0.3024139404296875,0.2500762939453125,-0.0072784423828125,0.7224000597645676,-0.40229158958761496,None
586,35.539,-0.0059814453125,0.21038818359375,0.04052734375,0.734660986828392,-0.3374191603998721,None
587,35.589,0.052734375,-0.00946044921875,0.278411865234375,0.7478628481494315,-0.28467634210851267,None
588,35.639,0.13995361328125,-0.4462890625,0.2469482421875,0.4841588550995826,-0.2646082823866296,None
589,35.689,-0.0653533935546875,-1.826873779296875,0.8433380126953125,0.5232389054878799,-0.19718901229834912,None
590,35.784,-1.0070343017578125,-2.19482421875,0.95977783203125,0.4556083722343442,-0.194326896672338,None
591,35.833,-0.3022918701171875,-0.644989013671875,0.17230224609375,0.2580893962925892,0.41248415822772,None
592,35.883,0.1395263671875,0.0461883544921875,0.6480865478515625,0.23073450704364137,0.2999685742393619,None
593,35.933,0.241790771484375,0.2366180419921875,0.640411376953125,0.3149236911760619,0.21825811127496073,None
594,35.983,0.33636474609375,0.2388458251953125,0.29302978515625,0.36910665856898095,0.16454398512527213,None
595,36.033,0.4325714111328125,-0.04779052734375,0.022186279296875,0.41346736753050406,0.1444259102578352,None
596,36.083,0.585205078125,-1.009796142578125,0.66259765625,0.518527611203413,0.1641723125658412,None
597,36.182,-0.91705322265625,-2.0484619140625,1.1158905029296875,0.5468443191870069,0.19819480348780097,None
598,36.232,0.2890472412109375,-0.532745361328125,0.279876708984375,0.4650753888097159,-0.4329612432391889,None
599,36.282,0.46026611328125,0.0514984130859375,0.4517974853515625,0.41841730821034684,-0.5373033778140198,None
600,36.332,0.5966033935546875,0.4379730224609375,0.5576171875,0.45052969606963067,-0.594912829467045,None
601,36.382,0.668182373046875,0.49188232421875,0.2579803466796875,0.4368276564285303,-0.6000228623249488,None
602,36.432,0.876129150390625,0.028961181640625,0.377532958984375,0.4432798999169488,-0.5504384659187285,None
603,36.481,0.2911224365234375,-1.32147216796875,0.4584197998046875,0.4188115739167423,-0.4455288360471981,None
604,36.586,0.3509063720703125,-2.22052001953125,0.6277923583984375,0.4373724865632686,-0.49383546264083955,None
605,36.636,0.42974853515625,-1.1331329345703125,0.3471221923828125,0.6315692006123204,-0.5938776984814123,None
606,36.686,1.22564697265625,-0.1509246826171875,0.5027008056640625,0.864899135186428,-0.6388588959942931,None
607,36.985,-1.992218017578125,1.61822509765625,-0.629608154296875,0.8226775301930733,-0.8055189365422425,Straight
608,37.035,-0.3492584228515625,0.063995361328125,1.2805023193359375,0.7121154567495432,-0.9006376312253592,None
609,37.085,0.846893310546875,-0.0373382568359375,1.028472900390625,0.5238345820608942,-0.9593063354735275,None
610,37.134,1.902984619140625,-0.190399169921875,1.3402862548828125,0.40981518262941075,-0.9854013088763561,None
611,37.209,2.073577880859375,-0.025787353515625,-0.2654876708984375,0.11036292046296363,-0.9896451947418962,None
612,37.259,-1.041168212890625,-1.4878387451171875,-0.9741668701171875,0.1207779292869259,-0.9336298300578662,None
613,37.309,-0.5239715576171875,-1.784423828125,1.4832611083984375,0.3879375102543432,-0.9321475786224006,None
614,37.359,-0.335113525390625,-0.8470458984375,0.5639190673828125,0.5541706446733009,0.31279532753385675,None
615,37.409,0.304046630859375,-0.3587493896484375,0.5159759521484375,0.8210472099508509,-0.43551972669473005,None
616,37.458,0.26312255859375,-0.328277587890625,0.6586151123046875,0.848164779215812,-0.4971098816064143,None
617,37.508,0.5294647216796875,-0.70892333984375,0.6741943359375,0.831401205647357,-0.5274999047524032,None
618,37.558,0.37939453125,-1.2856903076171875,0.551300048828125,0.8193151667454666,-0.5393981488548573,None
619,37.608,0.0939788818359375,-1.2875518798828125,0.6846160888671875,0.7982541651458461,-0.5642956011006646,None
620,37.658,0.4848175048828125,-0.7880706787109375,0.355926513671875,0.41160941648450783,-0.48904471562871105,None
621,37.708,0.32794189453125,-0.604461669921875,0.2366180419921875,0.3645189987266723,-0.4509276608258657,None
622,37.757,0.127471923828125,-0.420318603515625,0.3298187255859375,0.6173219446041639,-0.23207528485269635,None
623,37.807,0.233489990234375,-0.36541748046875,0.0396728515625,0.1079343107030473,-0.5361971981561188,None
624,37.857,0.282470703125,-0.59759521484375,-0.2161865234375,-0.34018487173692963,-0.4061715056570245,None
625,37.907,-0.121368408203125,-1.1924285888671875,0.03729248046875,-0.2861291374070056,-0.32203118615535276,None
626,37.957,-0.2852935791015625,-1.646514892578125,0.4296875,-0.22580211545645268,-0.2522138667074973,None
627,38.007,-0.3638153076171875,-1.547393798828125,0.3243865966796875,-0.23515121672721548,-0.20871681134498243,None
628,38.057,-0.1206817626953125,-1.0172119140625,0.1543731689453125,0.15004305374220514,0.11649799832672053,None
629,38.106,0.121063232421875,-0.55877685546875,0.0643463134765625,0.11439963402639161,-0.21041644793828965,None
630,38.156,0.0869598388671875,-0.4786224365234375,-0.0167999267578125,-0.03507898052186395,-0.17865471576418143,None
631,38.206,0.0256500244140625,-0.7950286865234375,0.0706024169921875,0.08845675382067666,-0.03211996525411917,None
632,38.256,-0.461181640625,-1.353607177734375,0.26788330078125,0.1659925410306408,-0.012582031095001889,None
633,38.306,-0.94921875,-1.700958251953125,0.527496337890625,0.26805547786524647,-0.041138068102276076,None
634,38.356,-0.709686279296875,-1.3292694091796875,0.4026947021484375,0.329216924735796,-0.09483255924808309,None
635,38.405,-1.4794921875,-1.076385498046875,0.5994415283203125,0.45722321213132144,-0.10998600861575562,None
636,38.455,-0.7199249267578125,-0.602508544921875,0.98663330078125,0.5462367888387125,-0.2111245874359099,None
637,38.505,-0.276275634765625,-0.1975860595703125,0.21136474609375,0.4205241911337014,-0.2973070647289105,None
638,38.555,0.0125274658203125,-0.1436614990234375,0.138092041015625,0.6929939348794665,-0.062743317188927,None
639,38.605,0.170806884765625,-0.517852783203125,0.531158447265625,0.7160181317730194,-0.2243818491131327,None
640,38.655,-0.37255859375,-1.2558135986328125,-0.0299072265625,0.6686173687476482,-0.25622173482500016,None
641,38.704,-0.7736663818359375,-1.4108734130859375,0.1440277099609375,0.6776373649576707,-0.3436266700431132,None
642,38.754,-0.1461334228515625,-0.929656982421875,0.2384185791015625,0.248419339084447,0.15052823794594036,None
643,38.804,0.1221466064453125,-0.7332916259765625,-0.09613037109375,-0.1299821647688496,-0.1629523410316848,None
644,38.854,0.3179168701171875,-0.971160888671875,0.0754547119140625,0.07746192709889778,-0.310267208988516,None
645,38.904,0.3433990478515625,-1.035308837890625,0.2618560791015625,0.13701917969627914,-0.28557580880961125,None
646,38.954,0.09326171875,-0.9194793701171875,-0.0444793701171875,-0.04831801535937809,-0.10079441774726791,None
647,39.004,0.334442138671875,-0.554901123046875,0.014892578125,0.02682859504202792,-0.5160624339436293,None
648,39.053,0.36712646484375,-0.388031005859375,0.2746734619140625,0.5777626214049074,-0.6112025935237878,None
649,39.103,0.334808349609375,-0.8150482177734375,0.60638427734375,0.5969073526483423,-0.31301408828247745,None
650,39.203,-0.4117279052734375,-2.40899658203125,1.260986328125,0.7099129488347666,-0.43827528845567293,None
651,39.253,1.251708984375,-0.249420166015625,-0.5154571533203125,0.7228649692186274,-0.57751952181342,None
652,39.382,2.473785400390625,1.564544677734375,1.0972900390625,0.9109944728267356,-0.3232973566907939,None
653,39.602,-3.4676666259765625,1.061370849609375,0.255828857421875,0.8445862044131011,-0.6167939312904963,Straight
654,39.652,0.83831787109375,0.9452362060546875,0.3866119384765625,0.7399156759801894,-0.7188160543277936,None
655,39.701,1.600982666015625,0.0713043212890625,0.2600555419921875,0.5852104800464177,-0.7829220499624764,None
656,39.751,1.9211883544921875,-0.024749755859375,0.913421630859375,0.4257977768187985,-0.8175352364851678,None
657,39.801,1.3127899169921875,-0.2657470703125,-0.741180419921875,0.1764755320575416,-0.8082927235138552,None
658,39.851,-0.106689453125,-1.40283203125,0.672149658203125,0.3014882921916257,-0.7354375784460708,None
659,39.901,0.28387451171875,-1.59942626953125,1.4616241455078125,0.41633086473932907,-0.6975270544806305,None
660,39.951,0.0830535888671875,-1.2822418212890625,0.13897705078125,0.3698906238332731,-0.6896516724077426,None
661,40,0.537689208984375,-0.486114501953125,0.2275543212890625,0.423957471451989,-0.7077321513752541,None
662,40.05,0.4271087646484375,-0.387115478515625,0.3452911376953125,0.6656427421272337,-0.6356332329538584,None
663,40.1,0.2982025146484375,-0.4011688232421875,0.206268310546875,0.4572654645917747,-0.5514635843767167,None
664,40.15,0.3868560791015625,-0.435150146484375,0.212158203125,0.4382398101351895,-0.6242664970801057,None
665,40.2,0.5541534423828125,-0.72882080078125,-0.03131103515625,-0.042921634766431314,-0.6049024580331662,None
666,40.25,0.47930908203125,-1.1794891357421875,0.376434326171875,0.044900419026319215,-0.5118834162610115,None
667,40.3,0.6109619140625,-1.3115081787109375,0.559295654296875,0.11251773323674316,-0.45049414778181784,None
668,40.349,0.849212646484375,-1.0478515625,0.3434600830078125,0.1181387313688974,-0.40236356277294655,None
669,40.399,0.678436279296875,-0.794830322265625,0.2774200439453125,0.32953486778223495,-0.6274846780897154,None
670,40.449,0.0981903076171875,-0.7970123291015625,0.358673095703125,0.4103813736147906,-0.1116436080958676,None
671,40.499,0.06988525390625,-0.466156005859375,0.2610931396484375,0.48866859002270063,-0.12969430142714627,None
672,40.549,-0.2787017822265625,-0.541778564453125,0.0999755859375,0.18146836373326028,0.45140547653301766,None
673,40.599,0.0240478515625,-0.382232666015625,0.2750091552734375,0.5840272554605889,-0.05100310791171793,None
674,40.648,0.236053466796875,-0.4742279052734375,0.33782958984375,0.5802089522497239,-0.3757107461906572,None
675,40.698,-0.19879150390625,-1.6567230224609375,0.3899078369140625,0.5669412833575542,-0.24206337363073147,None
676,40.773,-1.2498779296875,-2.2109832763671875,0.516937255859375,0.478953363539388,-0.2800775909571521,None
677,40.823,0.351654052734375,-0.7575225830078125,-0.0889129638671875,-0.11657311253923447,-0.41869317575309367,None
678,40.873,0.267486572265625,-0.5357666015625,0.2659149169921875,0.4445789304513588,-0.4082429352875558,None
679,40.923,0.3860626220703125,-0.291259765625,0.27410888671875,0.6853408981423766,-0.6944962196436794,None
680,40.972,0.4579620361328125,-0.642059326171875,0.32666015625,0.45345547254516305,-0.5364906612379792,None
681,41.022,-0.1092071533203125,-1.5148468017578125,0.2718353271484375,0.5489869281886313,-0.5429839734250878,None
682,41.072,0.067779541015625,-1.4469757080078125,0.39825439453125,0.5725330822638273,-0.5798351645103724,None
683,41.122,0.237823486328125,-0.7673492431640625,0.181640625,0.23034632126148816,-0.28874787941424335,None
684,41.172,0.4634857177734375,-0.2603912353515625,0.27520751953125,0.29732289606557377,-0.3225597958679753,None
685,41.222,1.025909423828125,-0.273162841796875,0.5698394775390625,0.2823789555092268,-0.28655226937077743,None
686,41.271,0.6130828857421875,-0.7362823486328125,0.211334228515625,0.27588905154972587,-0.6248650451728114,None
687,41.321,0.226531982421875,-0.9725189208984375,0.1529541015625,0.1553664030307865,-0.22424460885819159,None
688,41.371,0.4686279296875,-0.4032745361328125,0.064544677734375,0.15804004452053222,-0.7538845290484072,None
689,41.421,0.5551605224609375,-0.0890350341796875,0.053955078125,0.17600764655423334,-0.7299432787783193,None
690,41.471,0.657958984375,-0.417022705078125,0.3781585693359375,0.14851130886153785,-0.6715246398090206,None
691,41.571,0.246429443359375,-2.1523590087890625,1.6260833740234375,0.1800607806795719,-0.7599212310438925,None
692,41.62,1.1777191162109375,-0.73773193359375,0.269378662109375,0.33417248649350784,-0.8355127078610379,None
693,41.755,2.1355133056640625,1.2592010498046875,0.168701171875,0.5404232849522975,-0.7811955959063094,None
694,41.984,-2.066558837890625,0.697418212890625,-0.13323974609375,0.39408985486565956,-0.8941126534977104,Straight
695,42.034,0.04620361328125,-0.1649322509765625,1.417572021484375,0.26258945961739644,-0.9404544414490764,None
696,42.084,0.9155426025390625,-0.2298126220703125,0.62835693359375,0.05613568517931383,-0.9699888916688579,None
697,42.134,1.392364501953125,-0.3452911376953125,0.7295684814453125,-0.0484921550907642,-0.981734722101168,None
698,42.184,1.37738037109375,-0.374847412109375,0.4533843994140625,-0.11577179387594358,-0.9807710878838433,None
699,42.233,0.769195556640625,-0.6516571044921875,0.333526611328125,0.45560642012348657,-0.7243811992407576,None
700,42.283,0.40899658203125,-0.718780517578125,0.485198974609375,0.5594903820265,-0.4265610563532546,None
701,42.333,0.520294189453125,-0.497039794921875,0.4640960693359375,0.6824693364207612,-0.6076529189475581,None
702,42.383,0.13983154296875,-0.8016204833984375,0.4228973388671875,0.46660315841452416,-0.1524788563131656,None
703,42.433,0.100555419921875,-0.9805908203125,0.60552978515625,0.45288685110581894,-0.12138892604962247,None
704,42.483,0.0794525146484375,-0.839935302734375,0.4316558837890625,0.45708768468840766,-0.08383740899462903,None
705,42.533,0.4442901611328125,-0.86767578125,0.1027069091796875,0.11754948913597549,-0.4532620497037761,None
706,42.582,0.8544769287109375,-1.1297607421875,0.5790557861328125,0.04885998764240668,-0.47920366033684836,None
707,42.632,0.694793701171875,-1.4461517333984375,0.1194305419921875,-0.019430208743906587,-0.5099788816126237,None
708,42.682,0.3953094482421875,-1.5700836181640625,0.1600341796875,-0.0980759058409594,-0.5492050515712831,None
709,42.732,0.5560760498046875,-1.414825439453125,-0.0369415283203125,-0.20864834473239038,-0.6002967173012262,None
710,42.782,0.1783599853515625,-1.1220855712890625,-0.4304962158203125,-0.27703484818819796,-0.6539886398032874,None
711,42.832,-0.0143890380859375,-0.6778411865234375,-0.1733245849609375,-0.24773042441316043,0.02056170453349328,None
712,42.881,-0.03076171875,-0.440032958984375,0.09100341796875,0.20252475495438785,0.0682992121148491,None
713,42.931,0.066650390625,-0.390533447265625,-0.0516815185546875,-0.13119192468838234,-0.16681916734939276,None
714,42.981,0.277923583984375,-0.4460601806640625,0.079925537109375,0.1763721410574134,-0.5228051592688803,None
715,43.031,0.3211212158203125,-0.6200714111328125,0.369873046875,0.5122843175037425,-0.40638050998465935,None
716,43.081,0.4414215087890625,-0.4567108154296875,0.1342926025390625,0.2821003794415174,-0.6799375299720382,None
717,43.131,-0.0157623291015625,-0.680023193359375,-0.063201904296875,-0.09254197780663469,0.023073494140649017,None
718,43.181,-0.2274322509765625,-0.872283935546875,-0.1707611083984375,-0.19211656110967362,0.24788877594631273,None
719,43.23,-0.50909423828125,-1.0617218017578125,-0.0838775634765625,-0.219925968125903,0.3494511829865632,None
720,43.28,-0.89398193359375,-1.4036407470703125,-0.0787506103515625,-0.20482877482686432,0.41447275079429896,None
721,43.33,-0.696380615234375,-1.4530029296875,0.1408538818359375,-0.12122141932582552,0.41880936525999685,None
722,43.38,-1.283233642578125,-1.8347625732421875,0.4685516357421875,0.020870859814434817,0.41506905925450494,None
723,43.43,-1.0900726318359375,-1.5709075927734375,0.8489532470703125,0.13925689652418768,0.3547892059472744,None
724,43.48,-0.5742034912109375,-0.899322509765625,0.5290069580078125,0.15818855563809847,0.2795165634761448,None
725,43.529,-0.427520751953125,-0.4791412353515625,0.088104248046875,0.1808475317698607,0.6595903723422953,None
726,43.579,-0.3943328857421875,-0.4196319580078125,0.528411865234375,0.7831030736957276,0.5045572598291511,None
727,43.629,-0.287261962890625,-0.404052734375,0.3475494384765625,0.6521083892102756,0.4744609323639427,None
728,43.679,-0.0802459716796875,-0.4537811279296875,0.162200927734375,0.336587117213191,0.16425858683626277,None
729,43.729,0.302398681640625,-0.7939300537109375,0.3817901611328125,0.4333801985220823,-0.3246659446453794,None
730,43.779,0.149810791015625,-1.0932464599609375,0.35009765625,0.4713025671424988,-0.37162071479147973,None
731,43.828,0.0437469482421875,-1.2864837646484375,0.512481689453125,0.48573594002060283,-0.38384958212985304,None
732,43.878,0.081390380859375,-1.03082275390625,0.330474853515625,0.30528816676857334,-0.07497569968049346,None
733,43.928,0.197662353515625,-0.6360015869140625,0.153533935546875,0.23466409068738503,-0.28920108993916,None
734,43.978,0.21453857421875,-0.4802398681640625,0.0034332275390625,0.0071488021660517514,-0.40787323207405085,None
735,44.028,0.3098297119140625,-0.436920166015625,0.339874267578125,0.613994046778444,-0.48841574124758014,None
736,44.078,0.27301025390625,-0.7627105712890625,0.3664398193359375,0.43305640267337037,-0.30705557817288925,None
737,44.197,0.34173583984375,-2.0577850341796875,0.5378570556640625,0.490069672748804,-0.4414550338465164,None
738,44.247,1.278289794921875,-0.43487548828125,0.159576416015625,0.5684373334550237,-0.5714718786723485,None
739,44.297,1.7217559814453125,0.7751922607421875,1.3730926513671875,0.8181228704790287,-0.5902508979367121,None
740,44.546,-3.15216064453125,3.188995361328125,-1.095001220703125,0.5850971836081373,-0.791822017161159,Straight
741,44.596,-0.659423828125,-0.1131134033203125,0.8908538818359375,0.49162003270782306,-0.8862896509544719,None
742,44.646,-0.0230712890625,-1.015869140625,1.0843963623046875,0.36331899244432153,-0.9397433723990584,None
743,44.696,1.2490692138671875,-0.6006011962890625,1.012359619140625,0.1720398121811887,-0.9893344963489646,None
744,44.746,1.571868896484375,-0.4399871826171875,0.5191650390625,0.08379366959767919,-0.9999988964222077,None
745,44.795,1.0932769775390625,-0.5715789794921875,0.1383819580078125,0.05398914444060497,-0.9989975042715187,None
746,44.845,0.5968170166015625,-0.6553192138671875,0.5417938232421875,0.6371911874898655,-0.5745070812516523,None
747,44.895,0.23223876953125,-0.42706298828125,0.4845123291015625,0.7501817951797657,-0.33837017221079646,None
748,44.945,0.3740234375,-0.2652130126953125,0.3916473388671875,0.7771029973561602,-0.3772197342392246,None
749,44.995,0.387725830078125,-0.2807159423828125,0.350677490234375,0.7859389451347056,-0.40014438517217554,None
750,45.045,0.9862823486328125,-0.3435211181640625,0.4207305908203125,0.8019654148459964,-0.413018636731997,None
751,45.095,1.1447296142578125,-0.4734039306640625,0.8058319091796875,0.8192691811010381,-0.3765622900176827,None
752,45.144,1.3455352783203125,-0.7642974853515625,0.6241302490234375,0.8122409786015056,-0.34673595407306546,None
753,45.194,0.894195556640625,-0.626251220703125,0.016571044921875,0.02645144018305274,-0.819002279132184,None
754,45.244,0.4412078857421875,-0.425506591796875,0.2856597900390625,0.5573837621652671,-0.6524276021535236,None
755,45.294,0.4248504638671875,-0.2286376953125,0.18572998046875,0.5505705646935959,-0.6983829460994538,None
756,45.344,0.6886444091796875,-0.1825408935546875,0.07818603515625,0.4943680337730755,-0.7343717399672641,None
757,45.394,0.91790771484375,-0.566680908203125,0.3757781982421875,0.45363640827692175,-0.7364146906707377,None
758,45.443,1.071044921875,-0.7513885498046875,0.50909423828125,0.41867195658279477,-0.7248131605721084,None
759,45.493,1.0746612548828125,-0.43304443359375,0.4506072998046875,0.37639459308642514,-0.737434556331693,None
760,45.543,0.6876983642578125,-0.2289581298828125,0.508880615234375,0.3764117038217984,-0.7454000190238483,None
761,45.593,0.2562408447265625,-0.20068359375,0.5084228515625,0.3753080146791761,-0.7420635607404583,None
762,45.643,0.1536712646484375,-0.110015869140625,0.1863555908203125,0.3033576557134358,-0.7348438101765491,None
763,45.693,0.1533966064453125,-0.241485595703125,0.245758056640625,0.713279720156723,-0.4067247055250209,None
764,45.743,0.2926025390625,-0.6929473876953125,0.555908203125,0.6257585459738186,-0.312836332146518,None
765,45.792,-0.2574920654296875,-1.8097991943359375,1.1554412841796875,0.5929383544017822,-0.19771989294956174,None
766,45.857,-0.190521240234375,-2.0723419189453125,1.389007568359375,0.561987195562045,-0.2072056286173289,None
767,45.907,-0.111053466796875,-1.1878204345703125,1.055145263671875,0.5744585446583789,-0.25545224874744565,None
768,45.957,0.0089569091796875,-0.6165618896484375,0.5625457763671875,0.6740066243733137,-0.010730981853254011,None
769,46.007,0.1201934814453125,-0.27178955078125,0.1323699951171875,0.4378616869062467,-0.36945403445095626,None
770,46.057,0.2725982666015625,-0.109832763671875,0.097900390625,0.5098925458776484,-0.3867363638765885,None
771,46.106,0.604827880859375,-0.125335693359375,0.3845977783203125,0.5485133515932077,-0.33958493629686215,None
772,46.156,0.2959747314453125,-0.4795684814453125,0.4990386962890625,0.7210325724496603,-0.3931933459700126,None
773,46.206,0.2987518310546875,-0.765167236328125,0.6755218505859375,0.6618277925457442,-0.2809099452961821,None
774,46.256,0.417694091796875,-0.6851806640625,0.5944671630859375,0.6553358172180455,-0.4182523912079685,None
775,46.306,0.394317626953125,-0.6908111572265625,0.593597412109375,0.6517235294351421,-0.3972957269971115,None
776,46.356,0.37127685546875,-0.7029876708984375,0.6655426025390625,0.6875019629192799,-0.3580936747532996,None
777,46.405,0.2222900390625,-0.82769775390625,0.3668975830078125,0.4052453776248577,-0.23844189313570863,None
778,46.455,0.3762054443359375,-1.2852630615234375,0.5169219970703125,0.39183990383063894,-0.21345673824883918,None
779,46.505,0.2875518798828125,-1.7115325927734375,0.5948333740234375,0.39672239606204257,-0.20767035127957575,None
780,46.555,0.447723388671875,-1.0884552001953125,0.71405029296875,0.3838097187273143,-0.2347965888506619,None
781,46.605,0.4820556640625,-0.374664306640625,0.3813629150390625,0.7133439412841401,-0.6696582596448183,None
782,46.655,0.7288360595703125,0.166290283203125,0.2398681640625,0.687709258808219,-0.6906832354314312,None
783,46.705,0.7248992919921875,0.0735626220703125,0.2149658203125,0.6611869009337393,-0.7111399405360523,None
784,46.754,0.8177642822265625,-0.5862884521484375,0.141571044921875,0.23472379141923524,-0.8047851746974091,None
785,46.869,0.25946044921875,-2.02880859375,0.6531829833984375,0.231577991618514,-0.8950406267779755,None
786,46.919,1.3141937255859375,-0.451385498046875,0.1949615478515625,0.34415168023042375,-0.9636663528462969,None
787,46.969,1.654266357421875,0.6097259521484375,0.958038330078125,0.5408263063679659,-0.9767086612337412,None
788,47.288,-2.1320648193359375,0.52581787109375,0.4169921875,0.50875943366812,-0.9986576337798634,Straight
789,47.338,-0.1182403564453125,-0.0644378662109375,1.577880859375,0.38548072539606193,-0.9688002093321685,None
790,47.387,0.843017578125,-0.2464599609375,0.4708099365234375,0.11552969184369966,-0.9100371713366792,None
791,47.437,1.511383056640625,-0.3843231201171875,1.3973846435546875,0.030503196404442826,-0.8700732608087091,None
792,47.487,1.1952667236328125,-0.7766265869140625,0.111785888671875,-0.11628352746467112,-0.8758057528346632,None
793,47.537,0.5345916748046875,-0.9176025390625,0.5890960693359375,-0.06912024986003386,-0.9117964621952694,None
794,47.587,0.093170166015625,-0.9296722412109375,0.7654876708984375,0.05725743755387672,-0.9424313315044052,None
795,47.637,0.128753662109375,-0.699462890625,0.7256622314453125,0.7199844978044738,-0.12671650047567348,None
796,47.686,0.3111419677734375,-0.4723968505859375,0.65313720703125,0.8102747112272995,-0.36010346967410467,None
797,47.736,0.223419189453125,-0.581298828125,0.7394561767578125,0.7861646345492436,-0.23110160421266757,None
798,47.786,0.033172607421875,-0.8699798583984375,0.6322784423828125,0.5879076163839767,-0.030830021418926126,None
799,47.836,0.1945343017578125,-0.929901123046875,0.830902099609375,0.5630537578941105,0.01847132279848554,None
800,47.886,0.3312225341796875,-0.9576873779296875,0.535888671875,0.4959307912172845,0.05054008706149395,None
801,47.936,0.5164947509765625,-0.914947509765625,0.4986724853515625,0.48988634834017114,0.08264454291634897,None
802,47.986,0.395111083984375,-0.913818359375,0.3544769287109375,0.3616513044387812,-0.3738742457508299,None
803,48.035,0.38690185546875,-0.697998046875,0.538543701171875,0.6108660762626558,-0.4018637512467266,None
804,48.085,0.3916168212890625,-0.5567474365234375,0.391754150390625,0.5754628689593052,-0.49864122957418394,None
805,48.135,0.5818939208984375,-0.463043212890625,0.4366607666015625,0.6860770500146717,-0.6747612488340731,None
806,48.185,0.595611572265625,-0.7090606689453125,0.5272216796875,0.5966819511021818,-0.5589498352292505,None
807,48.235,0.3157501220703125,-0.7784271240234375,-0.3470458984375,-0.407194679145128,-0.3474004906679351,None
808,48.285,0.240814208984375,-0.9656829833984375,-0.66839599609375,-0.6086063690285822,-0.34819731313030533,None
809,48.334,0.3082427978515625,-1.0296173095703125,-0.6758270263671875,-0.6942462172948779,-0.35121568372109596,None
810,48.384,0.244873046875,-0.9555206298828125,-0.525848388671875,-0.7350851304903793,-0.3498212520510422,None
811,48.434,0.2476043701171875,-0.86260986328125,-0.6405487060546875,-0.7870314659809432,-0.3418517543432792,None
812,48.484,0.2540283203125,-0.801513671875,-0.5865478515625,-0.5905588029455419,-0.2477891227167126,None
813,48.534,0.2412261962890625,-0.8299713134765625,-0.39300537109375,-0.4279627730238219,-0.2540637147220713,None
814,48.584,0.238494873046875,-0.765350341796875,-0.3324737548828125,-0.3984365659396797,-0.27480822720825876,None
815,48.633,0.3274078369140625,-0.7676544189453125,-0.0926055908203125,-0.11976616736959697,-0.389919086313115,None
816,48.683,0.0741119384765625,-0.9286346435546875,-0.446136474609375,-0.4330401636470758,-0.07175097623025685,None
817,48.733,0.0411224365234375,-0.9260101318359375,-0.666229248046875,-0.4469338513964847,-0.057975715306021705,None
818,48.783,0.1403350830078125,-1.046630859375,-0.3926849365234375,-0.41628526577259994,-0.03706438822014267,None
819,48.833,0.2313385009765625,-1.0613861083984375,-0.437103271484375,-0.3576662679466331,-0.009289519208974514,None
820,48.883,0.279449462890625,-0.8018951416015625,0.0274658203125,0.034231063911159446,-0.32890472694494216,None
821,48.933,0.533905029296875,-0.54473876953125,0.3385009765625,0.5277986838097574,-0.6397960393428259,None
822,48.982,0.557373046875,-0.258758544921875,0.384674072265625,0.5437379642830489,-0.6328205169180219,None
823,49.032,0.565887451171875,-0.273651123046875,0.4873199462890625,0.5034828364426764,-0.6169683104419643,None
824,49.082,-0.06671142578125,-1.644287109375,-0.4375152587890625,0.386713728039455,-0.5623485298387673,None
825,49.162,0.4086456298828125,-2.3036041259765625,-0.56304931640625,0.5735959668408791,-0.6567744090770449,None
826,49.212,1.6405487060546875,-0.7777099609375,0.3663482666015625,0.8389305245900669,-0.7216537923450567,None
827,49.441,-3.9385986328125,-1.8065032958984375,-1.380523681640625,0.8215677891193449,-0.3851860295225316,None
828,49.546,-2.01202392578125,1.152557373046875,0.2578582763671875,0.7089126083576659,-0.5175234932030938,Straight
829,49.595,-1.3427276611328125,0.48272705078125,1.0175628662109375,0.4910095410499858,-0.624164622748047,None
830,49.645,-0.4273529052734375,-0.252105712890625,0.9709625244140625,0.12069693694307697,-0.740861094900641,None
831,49.695,0.662567138671875,-0.4898223876953125,0.5654144287109375,-0.25727393921989267,-0.8348643671562104,None
832,49.745,1.0738525390625,-1.3415374755859375,0.3140411376953125,-0.45912179094712996,-0.9073163711974161,None
833,49.795,1.018768310546875,-1.08697509765625,-0.432403564453125,-0.5795517552345653,-0.9179688246527448,None
834,49.845,0.3481903076171875,-1.450469970703125,-0.2983551025390625,-0.5732557626340028,-0.923282594926884,None
835,49.895,0.29193115234375,-1.119873046875,0.078521728515625,-0.5372769018668336,-0.9353372058360748,None
836,49.944,0.131683349609375,-0.722381591796875,0.314697265625,0.39938596115564323,-0.16483485479284785,None
837,49.994,0.213836669921875,-0.4417572021484375,-0.0751495361328125,-0.16770570076893163,-0.4306787665877245,None
838,50.044,0.1153106689453125,-0.7126312255859375,-0.4337615966796875,-0.5199347618031256,-0.1369171651691442,None
839,50.094,0.1538238525390625,-1.041595458984375,-0.13037109375,-0.12419574732183276,-0.14498918103164496,None
840,50.144,0.22467041015625,-1.0887908935546875,-0.711883544921875,-0.20298365248643635,-0.13488946274749666,None
841,50.194,0.512298583984375,-1.024658203125,-0.8040313720703125,-0.18767341326835124,-0.1289478398725284,None
842,50.243,0.3034515380859375,-1.0551300048828125,-0.709320068359375,-0.09062559955966672,-0.13112530179397872,None
843,50.293,0.1980743408203125,-0.9419097900390625,-0.369842529296875,-0.3654867466810375,-0.19209607446422594,None
844,50.343,0.30975341796875,-0.729217529296875,-0.3172607421875,-0.3989478091543426,-0.36294693578038395,None
845,50.393,0.330230712890625,-0.671356201171875,-0.1707916259765625,-0.24654500489835177,-0.43031003529492423,None
846,50.443,0.3557891845703125,-0.7423858642578125,-0.296630859375,-0.37104182765104404,-0.4065929559350939,None
847,50.493,0.1275482177734375,-1.25384521484375,-0.2877960205078125,-0.30615664993253483,-0.41012767113752324,None
848,50.543,-0.070037841796875,-1.4114532470703125,-0.492401123046875,-0.17333155768878158,-0.44519642297696277,None
849,50.592,0.25439453125,-0.8407135009765625,0.196624755859375,0.2277329555525371,-0.28262970108532687,None
850,50.642,0.571533203125,-0.5091094970703125,0.306732177734375,0.5160616531215595,-0.693122860051745,None
851,50.692,0.506011962890625,-0.606170654296875,0.386810302734375,0.5379295870567514,-0.5754919406581352,None
852,50.742,0.3744049072265625,-1.0605316162109375,0.1675262451171875,0.620252606487575,-0.5358850657191635,None
853,50.792,-0.0654449462890625,-1.525054931640625,0.3642578125,0.7215293398203013,-0.5262115007572551,None
854,50.842,0.1383209228515625,-1.0592041015625,0.5562591552734375,0.8462821230358677,-0.5927863725389892,None
855,50.891,0.4826507568359375,-0.5290374755859375,0.86083984375,0.871923558684267,-0.6398313601803257,None
856,50.941,0.312774658203125,-0.3835906982421875,0.595947265625,0.8661754556715352,-0.6807639720510779,None
857,50.991,0.4881439208984375,-0.3150177001953125,0.4102783203125,0.8642377273042293,-0.6933070451071757,None
858,51.041,0.2895050048828125,-0.547943115234375,0.4738922119140625,0.6541483505705806,-0.3710905421676524,None
859,51.091,0.606689453125,-0.5863494873046875,0.53533935546875,0.6742534146899978,-0.6071553080321844,None
860,51.141,0.601654052734375,-0.693115234375,0.6040191650390625,0.6569898704480794,-0.5475841278799837,None
861,51.19,0.426422119140625,-0.6638946533203125,0.569854736328125,0.651319754834982,-0.4381168073910672,None
862,51.24,0.27667236328125,-0.662445068359375,0.43658447265625,0.5502895927153525,-0.3292815573801638,None
863,51.29,0.195709228515625,-0.7343597412109375,0.5168304443359375,0.5755371793237087,-0.21294137184763795,None
864,51.34,0.2386627197265625,-0.808074951171875,0.714996337890625,0.5349693626941637,-0.18639029730083229,None
865,51.39,-0.482452392578125,-1.232940673828125,0.9059295654296875,0.5276121517350415,-0.1826362312555091,None
866,51.44,-0.3152313232421875,-0.9972686767578125,1.1240081787109375,0.4855566701112272,-0.1861026456679533,None
867,51.49,-0.240966796875,-0.8384857177734375,0.8697509765625,0.45691826951405845,-0.19888716706775772,None
868,51.539,-0.016021728515625,-0.6491851806640625,0.7977294921875,0.7756236556098476,0.015575861554167611,None
869,51.589,0.0413970947265625,-0.5714263916015625,0.68414306640625,0.7674995940050242,-0.04639094903713435,None
870,51.639,0.1899261474609375,-0.4779815673828125,0.570526123046875,0.7665382104282732,-0.24725474167305783,None
871,51.689,0.1707763671875,-0.4502410888671875,0.3883209228515625,0.6531152589922373,-0.2760659666578668,None
872,51.739,0.2248382568359375,-0.5076751708984375,0.3370208740234375,0.5530753427106848,-0.3461634430634559,None
873,51.789,0.3558807373046875,-0.5305023193359375,0.3496246337890625,0.5502863445469116,-0.48869172986927756,None
874,51.838,0.48797607421875,-0.59423828125,0.277984619140625,0.42372820043682446,-0.5968193222547882,None
875,51.888,0.7704620361328125,-0.7451171875,0.3180694580078125,0.358476203753764,-0.5919544244610897,None
876,51.938,1.2039031982421875,-1.3016815185546875,0.1916351318359375,0.2877923754300107,-0.548843166796498,None
877,52.013,0.048614501953125,-1.987396240234375,-0.265411376953125,0.30918092896231103,-0.5198554583657852,None
878,52.063,0.31048583984375,-1.2525482177734375,0.107330322265625,0.3704066320088117,-0.5389316643498386,None
879,52.113,0.3000640869140625,-0.6465301513671875,0.232879638671875,0.33888536787583756,-0.4001663375947709,None
880,52.162,0.25213623046875,-0.363067626953125,0.3391876220703125,0.6826672236549501,-0.45252971429461614,None
881,52.212,0.2479400634765625,-0.256561279296875,0.418487548828125,0.7154066742547004,-0.43106248805207426,None
882,52.262,0.272705078125,-0.240142822265625,0.3887939453125,0.731286280086351,-0.3987735376776159,None
883,52.312,0.1678924560546875,-0.445404052734375,0.545074462890625,0.7743512013314591,-0.23200571278387927,None
884,52.362,0.0972137451171875,-0.71185302734375,0.4043731689453125,0.49392742993795763,-0.11791474376042178,None
885,52.412,-0.3794403076171875,-1.4741363525390625,0.5354156494140625,0.5068146793317728,-0.09028961577831067,None
886,52.462,-0.435089111328125,-1.86474609375,0.857513427734375,0.5540520206383777,-0.10681327679451169,None
887,52.511,0.3985443115234375,-1.305145263671875,1.2191162109375,0.5629993877462696,-0.17276095896305926,None
888,52.771,-2.4121246337890625,-2.1463165283203125,1.2033843994140625,0.5255460684997235,0.19466290971547864,None
889,52.88,-2.2334747314453125,0.1813812255859375,0.899810791015625,0.37334211360861086,0.019615482968999676,Straight
890,52.93,0.0095977783203125,0.058685302734375,1.6104278564453125,0.17884999669368773,-0.15896492092331063,None
891,52.98,1.1328887939453125,-0.4434967041015625,0.3924407958984375,-0.07927303356924613,-0.3119301005267477,None
892,53.03,2.003387451171875,-0.3925933837890625,1.37615966796875,-0.20927796370231577,-0.425349303998952,None
893,53.08,1.434722900390625,-0.705291748046875,0.5242767333984375,-0.2506029099074846,-0.4724606595070689,None
894,53.129,0.51580810546875,-1.38958740234375,0.165069580078125,-0.29816266358438565,-0.40229420688461015,None
895,53.179,0.1981201171875,-1.258697509765625,1.1025543212890625,-0.16735055889503203,-0.36654928486695754,None
896,53.229,0.1939544677734375,-0.6555938720703125,0.3517303466796875,0.472763716190173,-0.25226449006845153,None
897,53.279,0.2947235107421875,-0.31451416015625,0.2267913818359375,0.5848840708452462,-0.6051225109783804,None
898,53.329,0.1242218017578125,-0.332000732421875,0.4355621337890625,0.7953050669844206,-0.22120130956304304,None
899,53.379,0.15740966796875,-0.417572021484375,0.1031341552734375,0.2397800658027795,-0.34367542764924214,None
900,53.428,0.28076171875,-0.497100830078125,0.361358642578125,0.5879915748777226,-0.415536979226448,None
901,53.478,0.618865966796875,-0.951385498046875,0.621734619140625,0.6562197955456361,-0.2732653042535511,None
902,53.528,0.2963104248046875,-1.4681549072265625,0.30511474609375,0.6769096855567642,-0.1148693546105707,None
903,53.578,0.58660888671875,-1.384185791015625,0.3496246337890625,0.7213422046536826,-0.03129069396262562,None
904,53.628,1.0750274658203125,-1.05987548828125,-0.0153656005859375,0.7453279485898976,-0.02294561699955476,None
905,53.678,1.022216796875,-0.8502197265625,0.252471923828125,0.7993182877710155,-0.019567363475543352,None
906,53.728,0.798065185546875,-0.6897125244140625,0.3296966552734375,0.8602582184315406,0.004257291432562685,None
907,53.777,0.40277099609375,-0.583587646484375,0.1035003662109375,0.17462681361057675,-0.5620606338095102,None
908,53.827,0.559295654296875,-0.4076995849609375,0.2615966796875,0.5400330085364102,-0.7558992221751627,None
909,53.877,0.441864013671875,-0.37847900390625,0.1245269775390625,0.31253742725997674,-0.7426578260367349,None
910,53.927,0.4573974609375,-0.4080352783203125,0.0853118896484375,0.2046543724648728,-0.7391010273644898,None
911,53.977,0.271148681640625,-0.64947509765625,0.31549072265625,0.436939136996493,-0.35155642348310523,None
912,54.027,0.8262176513671875,-0.8468017578125,0.641082763671875,0.5129039107871679,-0.26604134123335926,None
913,54.076,0.7576446533203125,-1.097900390625,0.7630157470703125,0.5478037237696085,-0.18476427863356817,None
914,54.126,0.6055450439453125,-1.2198944091796875,0.9011688232421875,0.5902079618203664,-0.09740478443584644,None
915,54.176,0.327667236328125,-0.869110107421875,0.74627685546875,0.6367770328026794,-0.0601748724839491,None
916,54.226,0.1973419189453125,-0.3983917236328125,0.4462127685546875,0.7459480713620552,-0.3132941770645399,None
917,54.276,0.3808135986328125,-0.0883331298828125,0.1174468994140625,0.7485878649858494,-0.3339302113406677,None
918,54.326,0.44366455078125,-0.0908966064453125,0.1691436767578125,0.766664953842104,-0.32829974448377797,None
919,54.375,0.533721923828125,-0.4275360107421875,0.3747406005859375,0.6591485119531324,-0.6844407826979026,None
920,54.425,0.7479705810546875,-0.91668701171875,0.5413665771484375,0.6703620343697547,-0.6258854756699579,None
921,54.475,0.482940673828125,-1.3108367919921875,0.7303466796875,0.686855851287953,-0.570353736507983,None
922,54.525,0.7756500244140625,-0.9388885498046875,0.7467498779296875,0.7047469718514814,-0.5617323840277063,None
923,54.575,0.7538604736328125,-0.6619873046875,0.3040313720703125,0.4173585314122267,-0.7191152077699827,None
924,54.625,0.521820068359375,-0.8168487548828125,0.32470703125,0.36939654449751863,-0.51046773761247,None
925,54.675,0.2586669921875,-1.0769805908203125,0.3963470458984375,0.38518371059833284,-0.5113693447216289,None
926,54.724,0.3007659912109375,-0.755462646484375,0.313690185546875,0.3834839496379526,-0.34509636719262654,None
927,54.774,0.52679443359375,-0.3191986083984375,0.182769775390625,0.33170117361838225,-0.3887004978727347,None
928,54.824,0.66778564453125,-0.141998291015625,0.437774658203125,0.3266829612344856,-0.4131033131484681,None
929,54.874,0.6729888916015625,-0.1900177001953125,0.36798095703125,0.33441696345404864,-0.4012752358098556,None
930,54.924,0.33734130859375,-0.563568115234375,0.4492950439453125,0.623374852290449,-0.4239099617723405,None
931,54.974,-0.039031982421875,-1.5910797119140625,0.608856201171875,0.6309681649991977,-0.3522159892258952,None
932,55.028,0.032562255859375,-2.2855682373046875,0.0569610595703125,0.6663965835759831,-0.46143825201028943,None
933,55.078,1.4392852783203125,-0.0831451416015625,0.880035400390625,0.8015470182464562,-0.5391335518754442,None
934,55.193,2.1026763916015625,0.8928680419921875,0.8532257080078125,0.9381903480049661,-0.26200457429038404,None
935,55.243,0.2091522216796875,1.6045684814453125,0.8521881103515625,0.9980926132629284,0.12198561169644252,None
936,55.432,-2.456878662109375,1.7210693359375,-0.762725830078125,0.9920242745976023,-0.12191512506886204,Straight
937,55.482,-0.1759796142578125,0.4921722412109375,1.2081146240234375,0.939415794035257,-0.24702696464617865,None
938,55.532,0.6289520263671875,-0.258056640625,0.7519989013671875,0.8354769124438897,-0.32483095607062523,None
939,55.582,1.2673797607421875,-0.7304534912109375,1.285369873046875,0.6974607173347633,-0.418440328538049,None
940,55.632,1.3618316650390625,-0.7512054443359375,0.269989013671875,0.5175299610231388,-0.49225780040901834,None
941,55.681,1.086456298828125,-0.849090576171875,0.004852294921875,0.5647759138791094,-0.5143771628760662,None
942,55.731,0.7169647216796875,-0.6348876953125,0.9647216796875,0.6831787793796573,-0.4983903807756475,None
943,55.781,0.409881591796875,-0.520660400390625,0.7103424072265625,0.8065443268998822,-0.4219362535679547,None
944,55.831,0.3549957275390625,-0.51416015625,0.3436737060546875,0.5557075821471639,-0.49782889859483465,None
945,55.881,0.32647705078125,-0.573822021484375,0.529876708984375,0.6784147851502093,-0.3856609619097376,None
946,55.931,0.31732177734375,-0.597625732421875,0.530120849609375,0.6635928754880867,-0.36915910655453815,None
947,55.98,0.6046600341796875,-0.5440216064453125,0.52386474609375,0.6936362514378067,-0.6249878740245249,None
948,56.03,0.567047119140625,-0.625640869140625,0.2092437744140625,0.3171782399120091,-0.6518420773032677,None
949,56.08,0.4395904541015625,-0.78485107421875,0.506072998046875,0.5419132272831415,-0.4258963928197062,None
950,56.13,0.532012939453125,-0.8335113525390625,0.5741729736328125,0.5052189741837457,-0.4428480948568436,None
951,56.18,0.8560791015625,-0.90081787109375,0.460662841796875,0.46033540522242744,-0.4531747745605218,None
952,56.23,0.71533203125,-1.085784912109375,0.5031280517578125,0.4549580561868789,-0.4625316544398894,None
953,56.28,0.59332275390625,-0.806488037109375,0.6735382080078125,0.4257173306620485,-0.5008732502434411,None
954,56.329,0.5458831787109375,-0.424407958984375,0.372467041015625,0.6596173066007874,-0.6950445671379504,None
955,56.379,0.6841278076171875,-0.3055419921875,0.28570556640625,0.66111281106346,-0.7245946332938956,None
956,56.429,0.68768310546875,-0.6035614013671875,0.45172119140625,0.599193322347498,-0.673925031195722,None
957,56.479,0.507904052734375,-0.877105712890625,0.5942230224609375,0.5871336492395934,-0.6941669700397396,None
958,56.529,0.5226593017578125,-0.68267822265625,0.5237884521484375,0.6087256064907294,-0.519147045419812,None
959,56.579,0.5139617919921875,-0.511138916015625,0.4842376708984375,0.6877452490180189,-0.589591134366773,None
960,56.628,0.583099365234375,-0.433624267578125,0.54107666015625,0.666730174546167,-0.6144746095908117,None
961,56.678,0.458465576171875,-0.6554718017578125,0.4990997314453125,0.6058071440121666,-0.4862636986736721,None
962,56.728,0.285247802734375,-0.74627685546875,0.684600830078125,0.6760002238051268,-0.27111506237477595,None
963,56.778,0.396331787109375,-0.7880706787109375,0.5934600830078125,0.601560411473652,-0.3727832940981285,None
964,56.828,0.2888031005859375,-0.87774658203125,0.554595947265625,0.5341511198783789,-0.26798263200629346,None
965,56.878,0.2084503173828125,-0.989044189453125,0.7490234375,0.5424789297792747,-0.28614753764828826,None
966,56.928,0.283660888671875,-0.951416015625,0.84130859375,0.5197746766761561,-0.32302463082281613,None
967,56.977,0.2620849609375,-0.7770843505859375,0.637939453125,0.6345138125833053,-0.2522479745068507,None
968,57.027,0.1924591064453125,-0.6067657470703125,0.58636474609375,0.6949145849298478,-0.2223766626983999,None
969,57.077,0.215118408203125,-0.4989776611328125,0.43670654296875,0.658590947808185,-0.30858447912615183,None
970,57.127,0.2773895263671875,-0.43621826171875,0.457916259765625,0.724053007481585,-0.4016686334464054,None
971,57.177,0.283172607421875,-0.4893951416015625,0.3999481201171875,0.632795953252294,-0.4088723426962148,None
972,57.227,0.0628814697265625,-0.84698486328125,0.5871429443359375,0.5697141588884905,-0.060901634994077185,None
973,57.276,-0.0680694580078125,-0.964599609375,0.7269287109375,0.555658981369957,-0.12807008506362633,None
974,57.326,0.15875244140625,-0.7908935546875,0.9005584716796875,0.5137691005589445,-0.20431251169417478,None
975,57.376,0.3818511962890625,-0.7504425048828125,0.703155517578125,0.6837422006057077,-0.34808779530533807,None
976,57.426,0.2664642333984375,-0.8463897705078125,0.497894287109375,0.5070337080422486,-0.2618849400732671,None
977,57.476,0.3306427001953125,-0.7349090576171875,0.49615478515625,0.559543488812845,-0.3493859325701808,None
978,57.526,0.4835205078125,-0.8437347412109375,0.556854248046875,0.5317047257621448,-0.41012606574944105,None
979,57.575,0.5567626953125,-1.1322174072265625,0.4779510498046875,0.4724119842637583,-0.4382122551535048,None
980,57.625,0.2491302490234375,-1.1934051513671875,0.45257568359375,0.45861800318921947,-0.49168247069203447,None
981,57.675,0.3730926513671875,-0.7181549072265625,0.4965057373046875,0.56868457351404,-0.3929550294727549,None
982,57.725,0.4990997314453125,-0.4423980712890625,0.392486572265625,0.6636492969554886,-0.6449467334526404,None
983,57.775,0.653167724609375,-0.564697265625,0.46490478515625,0.6355931770710108,-0.6660652168589253,None
984,57.825,0.64739990234375,-0.7523193359375,0.1728057861328125,0.22386756975523453,-0.6426069459525062,None
985,57.875,0.345855712890625,-0.808197021484375,0.47454833984375,0.506336921663147,-0.346203002930456,None
986,57.924,0.22283935546875,-0.8394927978515625,0.55609130859375,0.5522429647899035,-0.21606973251110612,None
987,57.974,0.023101806640625,-1.772705078125,0.4619903564453125,0.47687655816094887,-0.26476097676143395,None
988,58.024,0.692047119140625,-1.7095184326171875,0.4771881103515625,0.5095769874393405,-0.40890949176365504,None
989,58.343,-2.120269775390625,1.0706787109375,-1.057525634765625,0.3054143433702935,-0.5931682956838523,None
990,58.403,-2.0615386962890625,1.007537841796875,0.517974853515625,0.2342623245430719,-0.75268148851972,Straight
991,58.453,-0.7187042236328125,0.8150787353515625,0.68194580078125,0.008502071431181816,-0.8666266620321739,None
992,58.503,0.450164794921875,-0.192169189453125,1.49664306640625,-0.13749698958577317,-0.9421450661874378,None
993,58.552,1.0662841796875,-0.3859405517578125,1.231109619140625,-0.34049240039372497,-0.9801058016257826,None
994,58.602,1.055511474609375,-0.6735687255859375,1.2482147216796875,-0.5317817096600949,-0.9925969738527042,None
995,58.652,0.666839599609375,-0.803497314453125,0.531158447265625,-0.6577716464423452,-0.9952176445282434,None
996,58.702,0.4197540283203125,-0.8455352783203125,0.1844482421875,0.21313157806473787,-0.43640536985170586,None
997,58.752,0.4575653076171875,-0.91796875,0.6552734375,0.2517518111391391,-0.4366187972587816,None
998,58.802,0.5309906005859375,-0.5951690673828125,0.214935302734375,0.339662832771954,-0.6427994019009732,None
999,58.851,0.67462158203125,-0.7419586181640625,0.549285888671875,0.3772007891465678,-0.6526221470194218,None
1000,58.901,0.3404541015625,-0.8500823974609375,0.5643157958984375,0.5530667742720552,-0.3165130561104498,None
1001,58.951,0.4564208984375,-0.589874267578125,0.4922637939453125,0.6407234089454181,-0.5107426648980729,None
1002,59.001,0.4510040283203125,-0.84429931640625,0.3903656005859375,0.41966871913548903,-0.4362811824893323,None
1003,59.051,0.0968017578125,-1.3861846923828125,0.546051025390625,0.4587315289292931,-0.40387318511320836,None
1004,59.101,-0.1730499267578125,-1.4470672607421875,0.65313720703125,0.4937537455911717,-0.39363703613332884,None
1005,59.151,0.4759979248046875,-0.7645111083984375,0.4521026611328125,0.5090181028448358,-0.47236335539915697,None
1006,59.2,0.47930908203125,-0.3196563720703125,0.1255950927734375,0.3656922351434081,-0.8128653458521875,None
1007,59.25,0.240966796875,-0.405120849609375,0.57635498046875,0.818115135362768,-0.32363552230207504,None
1008,59.3,-0.0662384033203125,-0.7797088623046875,0.3529815673828125,0.4124162726763259,0.07716083289178885,None
1009,59.35,-0.1107940673828125,-1.3767547607421875,0.7950286865234375,0.45764716103921316,0.10780500315487353,None
1010,59.4,0.2785186767578125,-1.2915802001953125,1.0160675048828125,0.5239580318260466,0.11436892383683142,None
1011,59.45,0.854156494140625,-0.6822662353515625,0.802032470703125,0.6233870675163018,0.11630208102731655,None
1012,59.499,1.7372283935546875,-0.2019195556640625,1.2773284912109375,0.7266360438576146,0.13453454769428147,None
1013,59.789,-2.5523529052734375,1.5771942138671875,-0.400390625,0.5069717725992828,-0.13744684133569388,None
1014,59.838,-1.4058380126953125,0.1737518310546875,1.035736083984375,0.4998057464249001,-0.2601676340420011,Straight
1015,59.888,0.1668701171875,0.0611419677734375,1.276336669921875,0.33938437137629224,-0.37631773170755445,None
1016,59.938,0.6112213134765625,-0.4431304931640625,0.6718597412109375,0.125386351037183,-0.4779440163235692,None
1017,59.988,1.245635986328125,-0.40478515625,0.761627197265625,-0.04527161860222172,-0.5348101942246614,None
1018,60.038,0.9471588134765625,-0.6270294189453125,0.2255859375,-0.1485240291923344,-0.5442991160877549,None
1019,60.088,0.5490875244140625,-0.5330963134765625,0.6475677490234375,0.7720441755008253,-0.547711000107296,None
1020,60.137,0.3876190185546875,-0.8130950927734375,0.5763092041015625,0.5782624243688008,-0.3624817546654539,None
1021,60.187,0.1112823486328125,-1.062164306640625,0.3519134521484375,0.5930886758857484,-0.3691875382164702,None
1022,60.237,0.45965576171875,-1.100799560546875,0.663055419921875,0.6134595813037091,-0.39484573720421645,None
1023,60.287,0.445587158203125,-0.6839447021484375,0.27423095703125,0.37215458471306423,-0.5174495847033879,None
1024,60.337,0.6053619384765625,-0.413604736328125,0.1526031494140625,0.34614961355251045,-0.8083575346244576,None
1025,60.387,0.7758636474609375,-0.6117401123046875,0.297454833984375,0.4372892224655711,-0.7519309271543433,None
1026,60.437,0.0542449951171875,-1.5272674560546875,0.47198486328125,0.4265369724848524,-0.705181099075009,None
1027,60.486,-0.492340087890625,-1.948822021484375,0.6259918212890625,0.45990854046254326,-0.6757060567583455,None
1028,60.536,-0.0186004638671875,-1.0995635986328125,0.8177337646484375,0.4773704645988367,-0.6917659715353488,None
1029,60.586,0.346527099609375,-0.33831787109375,0.2841796875,0.6431823672901187,-0.6171298049250951,None
1030,60.636,0.52093505859375,0.0403289794921875,0.41949462890625,0.687345671897747,-0.6415146233691904,None
1031,60.686,0.7947235107421875,0.055633544921875,0.5007171630859375,0.7150433336614692,-0.6423857986410599,None
1032,60.736,0.65087890625,-0.330291748046875,0.2136688232421875,0.7047366711982631,-0.5998752508516344,None
1033,60.785,-0.4190216064453125,-1.8240203857421875,0.4643096923828125,0.6845213435642059,-0.5330019526397717,None
1034,60.875,0.3859405517578125,-2.05316162109375,0.01788330078125,0.6695988510291427,-0.7194758503926479,None
1035,60.925,2.1484832763671875,1.5025482177734375,1.35821533203125,0.8330551934639707,-0.8538818556379333,None
1036,61.035,2.224700927734375,0.6192626953125,0.70135498046875,0.9918255452280685,-0.7259781615000651,None
1037,61.113,-8.900741577148438,2.9481658935546875,-1.54736328125,0.9997681429348078,-0.6230452634742171,None
1038,61.164,-0.8089447021484375,-0.776947021484375,0.901397705078125,0.995907896127196,-0.6540711119583387,None
1039,61.274,-2.579925537109375,0.2469635009765625,0.6522369384765625,0.9608323568594366,-0.8077583735924724,None
1040,61.324,-0.7015380859375,-0.1652679443359375,1.10333251953125,0.9275155066584302,-0.8738770508576031,Straight
1041,61.374,0.5998992919921875,-0.1567840576171875,0.6730194091796875,0.823385933086688,-0.9074909206443554,None
1042,61.423,1.62445068359375,-0.2005157470703125,0.4364166259765625,0.7549115045502552,-0.8949406568250602,None
1043,61.473,1.261505126953125,-1.0319061279296875,0.917755126953125,0.7611405541465351,-0.8295986049374875,None
1044,61.523,0.7165985107421875,-1.099822998046875,0.2720489501953125,0.7073999740766714,-0.775699277792364,None
1045,61.573,0.5400238037109375,-0.93560791015625,0.2207183837890625,0.7267467270463858,-0.7433550839309297,None
1046,61.623,0.5886383056640625,-0.445404052734375,0.3101654052734375,0.5714606233356102,-0.7351764589881635,None
1047,61.673,0.3867340087890625,-0.2013092041015625,0.0897979736328125,0.595883944129444,-0.7437434374171994,None
1048,61.723,0.26715087890625,-0.3560943603515625,0.0833282470703125,0.22785080211031108,-0.5898701685911505,None
1049,61.772,0.61822509765625,-1.0248565673828125,0.3712921142578125,0.2455211095723663,-0.5370918128990608,None
1050,61.822,0.9104156494140625,-1.840850830078125,-0.0153045654296875,0.18987983774979839,-0.4941351573629451,None
1051,61.872,1.2923431396484375,-1.4215240478515625,-0.0176849365234375,0.22035488802065692,-0.47104427411198896,None
1052,61.922,0.7547760009765625,-0.819366455078125,0.00189208984375,0.2446812369315506,-0.3610555870869057,None
1053,61.972,0.100250244140625,-0.26580810546875,-0.088623046875,-0.3162931150837363,-0.33687693879467306,None
1054,62.022,-0.2465057373046875,-0.1694488525390625,0.0988006591796875,0.5037017280517508,0.7825004778580362,None
1055,62.071,-0.2755279541015625,-0.3366241455078125,0.2430419921875,0.5853711251337699,0.5529381295780436,None
1056,62.121,-0.31695556640625,-0.50799560546875,0.342864990234375,0.5594369360037373,0.4593671013321054,None
1057,62.171,-0.05084228515625,-0.7574920654296875,0.4599761962890625,0.519036093304143,0.057276138311240794,None
1058,62.221,0.06182861328125,-1.4728851318359375,0.4833526611328125,0.5181197038285948,0.16776572858422237,None
1059,62.321,-1.385009765625,-2.0337371826171875,0.7166595458984375,0.5091107055748042,0.22780203005337812,None
1060,62.37,-0.1735992431640625,-0.967926025390625,0.6951904296875,0.43618557402159214,0.18001365430437422,None
1061,62.42,0.19561767578125,-0.47857666015625,0.261871337890625,0.48002359959728746,-0.33753358878609735,None
1062,62.47,0.140533447265625,-0.20556640625,0.2791900634765625,0.8052659641639309,-0.3756527684990005,None
1063,62.52,0.18865966796875,-0.041748046875,0.137664794921875,0.8015795253714385,-0.4375987257195559,None
1064,62.57,0.4761505126953125,-0.2904052734375,-0.0204620361328125,-0.07028602067000812,-0.8531666959225194,None
1065,62.62,-0.0802764892578125,-1.494354248046875,0.3225555419921875,-0.017514901833156744,-0.8280755540526794,None
1066,62.699,-0.75,-2.1286163330078125,0.614471435546875,0.0238858948150851,-0.8302549723161374,None
1067,62.749,0.171783447265625,-0.6850128173828125,0.5082855224609375,0.5958848856137013,-0.19742533697708006,None
1068,62.799,0.7906036376953125,0.1143035888671875,-0.1514739990234375,0.49552331732635024,-0.27744240133961356,None
1069,62.849,1.1683349609375,0.5280914306640625,0.1325531005859375,0.49566464774090657,-0.3414718096912054,None
1070,62.899,0.2403411865234375,-0.353271484375,0.5670623779296875,0.5247174314677872,-0.26699573058229664,None
1071,63.018,1.3614654541015625,-2.288604736328125,1.0427703857421875,0.3064280443559105,-0.4967290578164591,None
1072,63.352,-2.6492462158203125,0.8811492919921875,1.0933380126953125,0.2707713784605658,-0.6544079871012058,Straight
1073,63.402,-0.0115814208984375,0.176788330078125,0.7695159912109375,0.05803649359269882,-0.7530540506033662,None
1074,63.452,1.0419464111328125,-0.4022064208984375,0.695159912109375,-0.035096754225855654,-0.8212212082242791,None
1075,63.507,2.1586456298828125,-0.6125030517578125,1.8202972412109375,-0.21640353758390082,-0.8387777269803797,None
1076,63.557,1.3545379638671875,-0.4185943603515625,-0.1216888427734375,-0.2966110476731387,-0.8388918977552474,None
1077,63.607,0.902801513671875,-0.4998626708984375,0.33685302734375,-0.1944594479085017,-0.7761188386338529,None
1078,63.656,0.2163238525390625,-0.5236968994140625,0.5851898193359375,0.7451742301282965,-0.26557270018963736,None
1079,63.706,0.3909149169921875,-0.3810882568359375,0.6313018798828125,0.7928042247160936,-0.22843810090861658,None
1080,63.756,0.51251220703125,-0.248260498046875,0.6856689453125,0.8189942975775889,-0.1923790893053077,None
1081,63.806,0.6319427490234375,-0.0903472900390625,0.71624755859375,0.8196186550167356,-0.13501420104324316,None
1082,63.856,0.4904022216796875,-0.806427001953125,0.7595672607421875,0.8226947683934915,-0.04177328800835663,None
