index,time,acc x,acc y,acc z,ori x,ori z,punch
0,0,-0.1898040771484375,-0.62139892578125,-0.869720458984375,-0.8136582301926767,-0.17483434910621481,None
1,0.05,-0.11334228515625,-0.576568603515625,-0.680755615234375,-0.7630851691838111,0.1260365835109897,None
2,0.1,0.0886688232421875,-0.5178375244140625,-0.6022491455078125,-0.758245406315845,-0.11094686701611392,None
3,0.15,-0.118133544921875,-0.5909271240234375,-0.7454071044921875,-0.783629620945089,0.1232443337373476,None
4,0.199,0.04412841796875,-0.7006378173828125,-0.5992431640625,-0.6499759291301173,-0.04780965697294253,None
5,0.249,0.0107269287109375,-0.7275238037109375,-0.8539886474609375,-0.6793722627195601,-0.09355431867186668,None
6,0.299,-0.068756103515625,-0.64068603515625,-1.0424041748046875,-0.6770186971173245,-0.14011818981797775,None
7,0.349,-0.0948638916015625,-0.5861663818359375,-0.7670745849609375,-0.7945677458026712,0.09779296212166709,None
8,0.399,-0.012237548828125,-0.52740478515625,-0.804718017578125,-0.8363773911402891,0.012717972195894692,None
9,0.449,-0.0059356689453125,-0.639495849609375,-0.7486572265625,-0.7603647491265046,0.006028381558775724,None
10,0.499,-0.042938232421875,-0.4923095703125,-0.9722137451171875,-0.7252204102815241,-0.0696666060775376,None
11,0.548,-0.1322174072265625,-0.5522613525390625,-0.7701873779296875,-0.8126703539406054,0.1381722687537198,None
12,0.598,0.3157958984375,-0.2143096923828125,-0.494903564453125,-0.76738648032817,0.1355086104769068,None
13,0.648,0.2022247314453125,-0.5406494140625,-0.2117919921875,-0.3647480971287431,-0.32889572027853164,None
14,0.698,-0.1467437744140625,-0.9574737548828125,-0.5342864990234375,-0.2670994657928345,-0.24262028005435707,None
15,0.748,-0.9286041259765625,-1.9161529541015625,-0.8004913330078125,-0.22576303214827226,-0.2348797643813549,None
16,0.798,-0.6583251953125,-1.6213531494140625,-0.655914306640625,-0.19476383381389348,-0.2910395807117514,None
17,0.847,-0.108001708984375,-0.802001953125,-0.3663177490234375,-0.41546731142216453,0.12158375719743661,None
18,0.897,0.0991363525390625,-0.440399169921875,0.422882080078125,0.6926160997493067,-0.16027121018060708,None
19,0.947,0.014404296875,-0.6394500732421875,0.390960693359375,0.5216303437716198,-0.01921505468191966,None
20,0.997,-0.2118682861328125,-1.2260284423828125,-0.4603118896484375,0.4659704379414107,-0.06448637012461937,None
21,1.047,-0.1762237548828125,-1.027191162109375,-1.5258026123046875,0.4620161390245191,-0.11992833853686143,None
22,1.097,0.0471343994140625,-0.5024261474609375,-0.5680084228515625,-0.7490245983990202,-0.06203574375540861,None
23,1.146,0.3665771484375,-0.0530242919921875,0.10906982421875,-0.7523344802660002,-0.11753241963477717,None
24,1.196,0.0887908935546875,-0.23291015625,0.149444580078125,0.5400328184986367,-0.305513878070861,None
25,1.246,-0.3014373779296875,-1.5050201416015625,-0.1124267578125,0.490381849129972,-0.27582832017589315,None
26,1.392,1.4619903564453125,-2.031585693359375,-1.9851531982421875,0.6012804862216939,-0.19795223212868704,None
27,1.634,-5.9314422607421875,-0.0135040283203125,3.469024658203125,0.800508574553108,0.039426399290858734,None
28,1.701,-2.1544036865234375,-0.1151885986328125,-0.674224853515625,0.7651541235853144,-0.011374943210318088,Hook
29,1.751,-1.3328704833984375,-0.91522216796875,-0.77447509765625,0.7475748567487065,-0.03550395417814611,None
30,1.801,-1.4835052490234375,-0.8643341064453125,-0.7459716796875,0.7501071256198582,-0.06501069776221582,None
31,1.85,-1.3284454345703125,-0.869842529296875,-0.3384552001953125,0.7372022526597375,-0.1416642092461465,None
32,1.9,-0.896392822265625,-0.756103515625,-0.3900146484375,0.7236140990993116,-0.3079205412618556,None
33,1.95,-0.254730224609375,-0.3413848876953125,-0.271453857421875,-0.6223798973368009,0.5043240169129791,None
34,2,0.20001220703125,-0.069549560546875,-0.5549774169921875,-0.6245245538387244,0.3490340236660361,None
35,2.05,0.384063720703125,-0.40252685546875,-0.14471435546875,-0.33831521936161174,-0.6680884178111288,None
36,2.1,0.6793670654296875,-0.8203582763671875,-0.5196685791015625,-0.34944500367157827,-0.7238934019893968,None
37,2.15,0.9239501953125,-1.243377685546875,-1.058837890625,-0.25033569074528556,-0.7298483937205611,None
38,2.199,0.5441741943359375,-1.406585693359375,-0.5680694580078125,-0.04542697486399074,-0.7027637116189416,None
39,2.249,0.3809356689453125,-0.9015960693359375,0.06585693359375,0.07285074145117294,-0.38832097345208033,None
40,2.299,0.421417236328125,-0.6588592529296875,0.38848876953125,0.5079178416351203,-0.48257032510345027,None
41,2.349,0.4737548828125,-0.4729156494140625,0.6066131591796875,0.7886552469935397,-0.5244321975169247,None
42,2.399,0.864776611328125,-0.512603759765625,0.8749542236328125,0.8555975037216795,-0.5321369978914108,None
43,2.449,0.8975372314453125,-0.6153106689453125,0.9132232666015625,0.869834247973758,-0.5290350595286699,None
44,2.498,0.5949554443359375,-0.6399993896484375,0.5311126708984375,0.6386076087982786,-0.5818229983404848,None
45,2.548,0.46502685546875,-0.2537689208984375,0.6065673828125,0.6676475931679389,-0.5752941441238142,None
46,2.598,0.33038330078125,-0.1998443603515625,0.729949951171875,0.6321478396280467,-0.55363746770745,None
47,2.648,0.497406005859375,-0.3939666748046875,0.58831787109375,0.5594524236373215,-0.5244434325948151,None
48,2.698,0.5889739990234375,-1.023651123046875,0.3198089599609375,0.5210705093166267,-0.464722834636026,None
49,2.748,0.4384307861328125,-1.26104736328125,0.21221923828125,0.4906750642289021,-0.42849816513280636,None
50,2.797,0.5648956298828125,-0.8180084228515625,0.20703125,0.24535561050811383,-0.5563093911399304,None
51,2.847,0.4409637451171875,-0.6213836669921875,0.2082366943359375,0.3177501003980057,-0.5582583483722942,None
52,2.897,0.27471923828125,-0.5850982666015625,0.0807647705078125,0.13673967758059818,-0.421730846899984,None
53,2.947,0.4082794189453125,-0.529449462890625,-0.0236663818359375,-0.04465539225889443,-0.6102777409418737,None
54,2.997,0.210418701171875,-0.7096099853515625,0.5086212158203125,0.5825699383800748,-0.23430271962271768,None
55,3.047,-0.3284454345703125,-1.243560791015625,0.9985198974609375,0.42893158554812044,-0.18887714149010557,None
56,3.096,0.7642059326171875,-1.6468963623046875,0.540435791015625,0.2948193948449641,-0.10118212144390457,None
57,3.525,-2.14447021484375,-0.7399444580078125,-0.6301422119140625,0.34726607920064223,-0.06338570612071318,Hook
58,3.575,-1.360504150390625,-0.6160125732421875,-0.80108642578125,0.3012971817775921,-0.10108422168455411,None
59,3.625,-1.4963531494140625,-0.7489776611328125,-0.6244659423828125,0.2819514150610156,-0.13995510407925482,None
60,3.675,-1.1196441650390625,-0.7706756591796875,-0.5318145751953125,0.22535769546078543,-0.2122493194828288,None
61,3.724,-0.7957916259765625,-0.7306060791015625,-0.4686279296875,0.19690124632887987,-0.31289995772935447,None
62,3.774,-0.37347412109375,-0.633148193359375,-0.5959930419921875,-0.6854188875327835,0.39464936626049,None
63,3.824,0.0928955078125,-0.386199951171875,-0.87298583984375,-0.7288691142179822,0.2105256033668981,None
64,3.874,0.311859130859375,-0.2939605712890625,-0.705352783203125,-0.7240574121978253,0.02569664359027656,None
65,3.924,0.539794921875,-0.2943878173828125,-0.5362701416015625,-0.7059698352858853,-0.13605686004267017,None
66,3.974,0.7022552490234375,-0.495147705078125,-0.436767578125,-0.6615130920425144,-0.728557539780347,None
67,4.024,0.8262939453125,-0.9765625,-0.390899658203125,-0.5564155348250233,-0.7783178354819608,None
68,4.073,0.911590576171875,-1.2521514892578125,-0.23699951171875,-0.4008041574392136,-0.7975569684436545,None
69,4.123,0.8504486083984375,-1.295501708984375,0.7360382080078125,-0.16272967489162307,-0.7845539181667993,None
70,4.173,0.4499969482421875,-1.0230865478515625,0.547454833984375,-0.004084760156884531,-0.7578965971526384,None
71,4.223,0.5228118896484375,-0.4782562255859375,0.5244293212890625,0.7388856368443865,-0.593076234326263,None
72,4.273,0.6429443359375,-0.31060791015625,0.3651275634765625,0.7641963291834806,-0.580691601504304,None
73,4.323,0.570892333984375,-0.60394287109375,0.2749481201171875,0.4143382040148698,-0.6521773378328765,None
74,4.372,0.481170654296875,-0.9725799560546875,0.0637054443359375,0.06536143351244529,-0.44267309164518126,None
75,4.422,0.5798492431640625,-0.932464599609375,-0.1452789306640625,0.02739245827428415,-0.419731059149406,None
76,4.472,0.58056640625,-0.615570068359375,0.14923095703125,0.23560278356927172,-0.6756924628465127,None
77,4.522,0.515960693359375,-0.396820068359375,0.479827880859375,0.23438930786576329,-0.6425280140130396,None
78,4.572,0.4520721435546875,-0.463775634765625,0.1248016357421875,0.2598549766307063,-0.6854044030601519,None
79,4.622,0.4954681396484375,-0.5918731689453125,-0.3157958984375,-0.4707393398747466,-0.5940977837299971,None
80,4.671,0.4404296875,-0.918182373046875,-0.3433074951171875,-0.35021917118335055,-0.4098311059462434,None
81,4.721,0.0774383544921875,-1.4113311767578125,-0.0029144287109375,-0.4699369448083579,-0.3495854127913921,None
82,4.771,0.24542236328125,-1.8369140625,0.1008148193359375,-0.5218415306263894,-0.2752954923549175,None
83,5.003,1.9612274169921875,3.1963043212890625,-6.892486572265625,-0.5389503098246969,-0.1583327855455268,None
84,5.16,-2.830535888671875,-0.5734405517578125,-0.4509124755859375,-0.5473766392146047,-0.15595552887402508,Hook
85,5.21,-1.1978912353515625,-0.6215362548828125,-1.764984130859375,-0.5735179862793512,-0.19457782926943337,None
86,5.26,-0.4438323974609375,-0.678863525390625,-1.717254638671875,-0.5785792252036669,-0.25260551526133307,None
87,5.309,-0.9487762451171875,-1.00604248046875,-1.0127716064453125,-0.37461453735628547,-0.2879929655890696,None
88,5.359,-0.727935791015625,-0.8982391357421875,-0.1722412109375,-0.2487397297524672,-0.3592825811468108,None
89,5.409,-0.45794677734375,-0.6441802978515625,-0.3712310791015625,-0.4993072411792603,0.524440492146448,None
90,5.459,0.0995635986328125,-0.488250732421875,-0.657257080078125,-0.8027423186139658,-0.12071298863592558,None
91,5.509,0.6243896484375,-0.484161376953125,-0.27362060546875,-0.49200843452090753,-0.7467456754490518,None
92,5.559,0.7345123291015625,-0.5875244140625,-0.350555419921875,-0.5123885410218867,-0.7317433820723401,None
93,5.609,0.738433837890625,-0.5944061279296875,-0.38323974609375,-0.5418791690399934,-0.722195171525929,None
94,5.658,0.6522674560546875,-0.7216644287109375,-0.471954345703125,-0.5473280284999206,-0.6032810755906399,None
95,5.708,0.6173248291015625,-0.7090606689453125,-0.4995269775390625,-0.5759238732686324,-0.579862698142035,None
96,5.758,0.602325439453125,-0.7988433837890625,-0.380859375,-0.43035517663965306,-0.5626506087156605,None
97,5.808,0.63189697265625,-0.8219757080078125,-0.3513336181640625,-0.3930291366784992,-0.5772317858750454,None
98,5.858,0.6152496337890625,-0.9132080078125,-0.621917724609375,-0.4443720852826652,-0.5848613854512531,None
99,5.908,0.5795135498046875,-1.0293121337890625,-0.7338409423828125,-0.46624499521304846,-0.5791976652931272,None
100,5.957,0.4160919189453125,-1.117889404296875,-0.8115997314453125,-0.4516309707684455,-0.5638016342112444,None
101,6.007,0.25482177734375,-1.0542449951171875,-0.6930694580078125,-0.42751031736952,-0.5452575664191555,None
102,6.057,0.211334228515625,-0.947052001953125,-0.3946380615234375,-0.38464284103807217,-0.20174621788955405,None
103,6.107,0.21502685546875,-0.8696441650390625,-0.256500244140625,-0.2828997074455951,-0.2307572358973689,None
104,6.157,0.270965576171875,-0.8147430419921875,-0.3811187744140625,-0.423711823974686,-0.28844410230347656,None
105,6.207,0.2173919677734375,-0.8742523193359375,-0.5512237548828125,-0.533345708606657,-0.20583702612508387,None
106,6.256,0.1779632568359375,-0.9144134521484375,-0.567352294921875,-0.5272188449444476,-0.16315842848070566,None
107,6.306,0.1436920166015625,-0.87567138671875,-0.5043792724609375,-0.4991166721921714,-0.14077671566520994,None
108,6.356,0.2186126708984375,-0.8445587158203125,-0.424896240234375,-0.4494265942904753,-0.22528917287244055,None
109,6.406,0.1398468017578125,-0.9114990234375,-0.4682464599609375,-0.45694321227343926,-0.13521760674361505,None
110,6.456,-0.00445556640625,-0.82879638671875,-0.688690185546875,-0.6391029541342388,0.004134720330512965,None
111,6.506,0.0016937255859375,-0.837921142578125,-0.5550079345703125,-0.5522137207766867,-0.0016851960511842813,None
112,6.555,-0.169921875,-0.8412933349609375,-0.656494140625,-0.6151980312113694,0.1572520112667131,None
113,6.605,-0.2850494384765625,-0.8590240478515625,-0.5573272705078125,-0.5442752936101045,0.26817697243622246,None
114,6.655,-0.320343017578125,-0.7509918212890625,-0.4844207763671875,-0.5420556980555095,0.3374328485200224,None
115,6.705,-0.297607421875,-0.69183349609375,-0.5579833984375,-0.6277886910399183,0.3175124102539954,None
116,6.755,-0.337615966796875,-0.718505859375,-0.5554046630859375,-0.6115823443176698,0.3484635519532038,None
117,6.805,-0.3189697265625,-0.6861572265625,-0.468994140625,-0.5642889545424005,0.3583004749307303,None
118,6.855,-0.2542724609375,-0.644775390625,-0.4534149169921875,-0.5752253280221726,0.30700483943683665,None
119,6.904,-0.2984161376953125,-0.60455322265625,-0.408355712890625,-0.5597386470220054,0.37859485829303335,None
120,6.954,-0.39056396484375,-0.72796630859375,-0.300811767578125,-0.3819011743347234,0.444235082145766,None
121,7.004,-0.501861572265625,-0.905487060546875,-0.5736083984375,-0.40743867913681525,0.4703963997152651,None
122,7.054,-0.511871337890625,-1.0615997314453125,-0.726409912109375,-0.42226573238802884,0.48008190160673103,None
123,7.104,-0.44134521484375,-1.0112457275390625,-0.77557373046875,-0.44259954376775223,0.48010007704635477,None
124,7.154,-0.37432861328125,-0.8801727294921875,-0.563140869140625,-0.42664524254101,0.47882338281743764,None
125,7.203,-0.2839202880859375,-0.779571533203125,-0.239715576171875,-0.2939149369005593,0.32876340686514127,None
126,7.253,-0.126434326171875,-0.7344207763671875,-0.3167572021484375,-0.3960365487770724,0.15614000226979524,None
127,7.303,-0.079315185546875,-0.8406829833984375,-0.629058837890625,-0.5991137355168179,0.07532493821897539,None
128,7.353,0.0587310791015625,-1.1295013427734375,-1.0391387939453125,-0.5496078141479748,0.07432485645975635,None
129,7.403,-0.0360870361328125,-1.3669891357421875,-0.908843994140625,-0.48187794112951116,0.08915920728607916,None
130,7.453,-0.0955657958984375,-1.03961181640625,-0.6002044677734375,-0.3850309590624054,0.0730162958669297,None
131,7.502,0.0236663818359375,-0.6944732666015625,-0.2213592529296875,-0.3036900886759563,-0.03245159188679062,None
132,7.552,-0.024139404296875,-0.4995880126953125,-0.001739501953125,-0.0034818517751525006,0.04826202413333208,None
133,7.602,-0.000244140625,-0.4518890380859375,0.065338134765625,0.14310079914151283,0.0005347063192320453,None
134,7.652,-0.0909576416015625,-0.706390380859375,-0.3050079345703125,-0.39640942464637313,0.11739739358212939,None
135,7.702,-0.1710662841796875,-1.1138916015625,0.1556549072265625,-0.4391298043494117,0.161981483630651,None
136,7.752,0.3270416259765625,-1.282470703125,-0.327789306640625,-0.5440423468848989,0.20057055033192037,None
137,7.802,0.7236480712890625,-1.5050201416015625,-1.0700836181640625,-0.6172790445952134,0.3216196344970209,None
138,7.851,1.169769287109375,-1.9176483154296875,-1.0217742919921875,-0.5734026430289457,0.46120308425791195,None
139,8.2,-2.3935546875,-0.29864501953125,-0.743927001953125,-0.5109432214879491,0.44698772411421683,Hook
140,8.25,-0.7952880859375,-0.8559112548828125,-1.201141357421875,-0.5333686083460134,0.3706492966259244,None
141,8.3,-0.449462890625,-1.108367919921875,-1.4540863037109375,-0.5548260808605511,0.28209790108224075,None
142,8.35,-0.6199798583984375,-1.1684417724609375,-1.2588348388671875,-0.5032052353017226,0.1791492356436308,None
143,8.4,-0.805511474609375,-1.1136474609375,-1.0254669189453125,-0.39562192737453605,0.05211477323777425,None
144,8.449,-0.1542816162109375,-0.58380126953125,-0.5900421142578125,-0.7108561319615221,0.18274163779764246,None
145,8.499,0.7660980224609375,-0.118316650390625,-0.22845458984375,-0.7177940384913445,-0.014495902833537293,None
146,8.549,0.7351837158203125,-0.5032196044921875,-0.2749481201171875,-0.4794765700431873,-0.7885071936841004,None
147,8.599,0.492462158203125,-0.622589111328125,-0.243255615234375,-0.36392417910403224,-0.5931516468461592,None
148,8.649,0.6950531005859375,-0.6684417724609375,-0.2872467041015625,-0.39481516118877064,-0.6907752900080238,None
149,8.699,0.555694580078125,-0.90850830078125,-0.2222137451171875,-0.23758821885379708,-0.5107878018360279,None
150,8.749,0.368927001953125,-1.0648956298828125,-0.132843017578125,-0.18340215828177867,-0.5571794093628128,None
151,8.798,0.3365020751953125,-1.0196533203125,-0.36810302734375,-0.14262162652668398,-0.60599719882619,None
152,8.848,0.434112548828125,-0.9084320068359375,-0.475982666015625,-0.0778562311668344,-0.6562187501816186,None
153,8.898,0.5395050048828125,-0.7730560302734375,-0.61846923828125,0.010177094517841169,-0.6905289813876369,None
154,8.948,0.6513671875,-0.52398681640625,-0.536346435546875,-0.7153004752492885,-0.6558059828769154,None
155,8.998,0.769866943359375,-0.2883148193359375,-0.57452392578125,-0.6291632859356969,-0.6518835207372985,None
156,9.048,0.566314697265625,-0.47515869140625,-0.2241973876953125,-0.4267213196493817,-0.7330957091808418,None
157,9.097,0.4254608154296875,-0.7763519287109375,-0.3952484130859375,-0.4536964448801932,-0.4388385376870058,None
158,9.147,0.28717041015625,-1.0664215087890625,-0.8835906982421875,-0.4325820908459018,-0.38921645738562244,None
159,9.197,0.0939483642578125,-1.1634674072265625,-0.4484100341796875,-0.3716474126917044,-0.3626314193860179,None
160,9.247,0.0377349853515625,-0.9824371337890625,-0.1355743408203125,-0.13670247663167448,-0.038021471843013736,None
161,9.297,0.0738525390625,-0.92486572265625,0.2126007080078125,0.22402918684102416,-0.07758793167990247,None
162,9.347,0.0144195556640625,-0.988800048828125,0.18011474609375,0.1792060684976457,-0.014345332828998926,None
163,9.396,-0.119842529296875,-1.2674560546875,-0.1969146728515625,0.16332957200060969,-0.010961193678953022,None
164,9.446,0.10980224609375,-1.1095428466796875,-0.470184326171875,0.14144439883813972,-0.04737733824425096,None
165,9.496,0.2591400146484375,-0.9563140869140625,-0.27984619140625,-0.2808519645544728,-0.25169854928290364,None
166,9.546,0.3262481689453125,-0.8573150634765625,0.13250732421875,0.15274710244584228,-0.3520102001766675,None
167,9.596,0.3281402587890625,-0.8182220458984375,0.67950439453125,0.28938045326961387,-0.35402112604696623,None
168,9.646,0.164825439453125,-0.7719573974609375,0.526336669921875,0.5633383449201104,-0.17373007863746934,None
169,9.696,0.136688232421875,-1.0724945068359375,0.1342926025390625,0.1242449686308363,-0.1254621143163578,None
170,9.745,0.20758056640625,-1.3548126220703125,-0.1667327880859375,0.16226485655738182,-0.08781659061247288,None
171,9.795,0.0220184326171875,-1.317291259765625,0.4021759033203125,0.2925256184408228,-0.0393401676538865,None
172,9.845,0.148468017578125,-1.016571044921875,0.598175048828125,0.3440279099382874,-0.021719406529296686,None
173,9.895,0.3359222412109375,-0.5112152099609375,0.379180908203125,0.5957376870803992,-0.46675548537593464,None
174,9.945,0.5742950439453125,-0.1150054931640625,0.242828369140625,0.5671829026417132,-0.4714965824711485,None
175,9.995,0.2527618408203125,-0.476593017578125,0.02459716796875,0.05154182585806859,-0.46804981715342653,None
176,10.044,0.0496673583984375,-0.8310546875,0.06585693359375,0.07899735143366897,-0.05947202051781392,None
177,10.094,0.0501708984375,-0.7820281982421875,0.043853759765625,0.055988991507816235,-0.06392320920453491,None
178,10.144,0.0513153076171875,-0.682220458984375,0.5799407958984375,0.6476830458594582,-0.05721551123367198,None
179,10.194,0.124359130859375,-1.2717132568359375,0.3482666015625,0.46744830536354426,0.013996442304631592,None
180,10.623,-2.2768402099609375,-0.716888427734375,-0.4742431640625,0.43996466665191813,-0.000993208222146346,Hook
181,10.672,-1.020751953125,-0.7587127685546875,-1.32769775390625,0.4192115356559774,-0.04561503099877069,None
182,10.722,-0.97332763671875,-0.87103271484375,-1.283050537109375,0.4366498760780118,-0.1302181566378424,None
183,10.772,-0.8805389404296875,-0.8740997314453125,-0.8806610107421875,0.48910182794244594,-0.26303916630653407,None
184,10.822,-0.7782135009765625,-0.6666259765625,-0.831756591796875,0.556226358558305,-0.43243056216719905,None
185,10.872,-0.3713836669921875,-0.4182281494140625,-0.742431640625,0.5817798635596617,-0.5936038929599365,None
186,10.922,0.2316436767578125,-0.1977386474609375,-0.41949462890625,0.5647653756850801,-0.7194032991376128,None
187,10.971,0.6225433349609375,-0.03582763671875,-0.19927978515625,0.570801925390664,-0.783495564802258,None
188,11.021,0.6888427734375,-0.10894775390625,0.0303192138671875,0.5797444513212113,-0.7827566286079783,None
189,11.071,0.3343658447265625,-0.4005889892578125,-0.0723114013671875,-0.17764169100709862,-0.6347308918865551,None
190,11.121,0.2167510986328125,-1.0557708740234375,-0.8121337890625,-0.3096458664118226,-0.5959795483643452,None
191,11.171,0.5462799072265625,-1.7093658447265625,-1.35943603515625,-0.4285999854815088,-0.5944162025861952,None
192,11.221,0.9534759521484375,-1.4970855712890625,-1.2409820556640625,-0.45332844288027524,-0.6373213835792652,None
193,11.27,0.9734954833984375,-1.1840972900390625,-0.7634124755859375,-0.4354102220471045,-0.6759666485407549,None
194,11.32,0.9833526611328125,-1.0994415283203125,-0.4655303955078125,-0.370511652324717,-0.7047321658013254,None
195,11.37,0.8498077392578125,-1.171112060546875,-0.8897705078125,-0.2553875834658058,-0.7158371287463492,None
196,11.42,0.3584442138671875,-1.3097381591796875,-1.1156158447265625,-0.10986676987205073,-0.7163587785524587,None
197,11.47,0.0844573974609375,-1.1901092529296875,-0.8820648193359375,0.00541666143301206,-0.7224395472181362,None
198,11.52,-0.084564208984375,-0.952484130859375,-0.479156494140625,-0.44939900397110244,0.07906415600393471,None
199,11.57,-0.186431884765625,-0.5771026611328125,-0.2879638671875,-0.44648476275536614,0.277691862532648,None
200,11.619,-0.1098785400390625,-0.2983856201171875,-0.084564208984375,-0.272667092449191,0.3339505197748755,None
201,11.669,0.0059356689453125,-0.2581329345703125,0.189666748046875,0.5921130524884631,-0.018527147441793436,None
202,11.719,0.1220245361328125,-0.304840087890625,0.2624969482421875,0.6525170852935925,-0.2902697078573395,None
203,11.769,0.147705078125,-0.4166107177734375,0.3475189208984375,0.6405577934944763,-0.2626929188527905,None
204,11.819,0.137420654296875,-0.5689239501953125,0.5587615966796875,0.7007061016881219,-0.16982690371538675,None
205,11.869,0.060882568359375,-0.8847198486328125,0.6962890625,0.6716509313349855,-0.13309498523568372,None
206,11.918,0.0336151123046875,-1.1681976318359375,0.7300262451171875,0.6440099384504121,-0.10150356915878414,None
207,11.968,0.0223846435546875,-1.4083404541015625,0.787109375,0.6260651798464574,-0.051322432499094864,None
208,12.018,-0.3078155517578125,-1.648895263671875,0.62689208984375,0.6752476692866599,-0.02623325805796179,None
209,12.068,0.0008392333984375,-1.437286376953125,0.8404083251953125,0.7313221121908122,-0.021382824835888818,None
210,12.118,-0.236297607421875,-1.227630615234375,0.6658782958984375,0.8048910939973359,-0.04241284472651133,None
211,12.168,-0.1589813232421875,-0.7784881591796875,0.6783905029296875,0.6569748013760633,0.15216955197214382,None
212,12.217,-0.018341064453125,-0.3893890380859375,0.251861572265625,0.5431052907266991,0.0395191198183111,None
213,12.267,0.1757659912109375,-0.1757659912109375,0.1571197509765625,0.6664542465249206,-0.597712192470447,None
214,12.317,0.473358154296875,-0.1788177490234375,0.1015777587890625,0.6744594481375566,-0.5962923651291661,None
215,12.367,0.5354461669921875,-0.2883453369140625,0.2278900146484375,0.6824967494758549,-0.5695345573029201,None
216,12.417,0.5754547119140625,-0.47283935546875,0.3665771484375,0.6127039062967877,-0.6932163049214599,None
217,12.467,0.606109619140625,-0.7143402099609375,0.42010498046875,0.5069348298700134,-0.5903400336506687,None
218,12.517,0.447723388671875,-0.98516845703125,0.5385894775390625,0.5355890254904709,-0.5535283724706433,None
219,12.566,0.55487060546875,-1.0447540283203125,0.7182159423828125,0.5362069025478836,-0.5243802599982113,None
220,12.616,0.3485565185546875,-0.9282989501953125,0.494293212890625,0.5206701367180856,-0.48497320831818347,None
221,12.666,0.0488433837890625,-0.8776702880859375,0.415863037109375,0.42819102346355853,-0.05022783537649298,None
222,12.716,0.0055389404296875,-0.724365234375,0.530975341796875,0.5912001399420368,-0.00616706620332754,None
223,12.766,0.1896209716796875,-0.7631683349609375,0.590850830078125,0.6121802080373611,-0.19278083659932338,None
224,12.816,-0.0053558349609375,-1.0389251708984375,0.3830108642578125,0.5851196945221482,-0.12324743297525592,None
225,12.865,-0.1816864013671875,-1.34429931640625,0.5037841796875,0.5921967801280735,-0.06597982661411458,None
226,12.915,-0.221527099609375,-1.21392822265625,0.211212158203125,0.5657844588578993,-0.016061765112955036,None
227,12.965,-0.06805419921875,-0.9676971435546875,0.0235595703125,0.024338804095193206,0.07013198397280222,None
228,13.015,-0.012451171875,-0.75677490234375,0.0305023193359375,0.04027297042009671,0.01643737069396726,None
229,13.065,-0.0487518310546875,-0.6549072265625,-0.0562744140625,-0.0856118303148443,0.07396436234596422,None
230,13.115,-0.0523223876953125,-0.5114593505859375,-0.3109588623046875,-0.5195028927078271,0.08708025455255478,None
231,13.164,0.0348358154296875,-0.5314483642578125,-0.2976531982421875,-0.4886560011119269,-0.057096515540750244,None
232,13.214,0.0457916259765625,-0.69232177734375,-0.19256591796875,-0.26797239638521747,-0.06359408622412216,None
233,13.264,0.1513214111328125,-1.390625,-0.400543212890625,-0.42479576857503404,-0.017484756287460997,None
234,13.64,-6.442474365234375,3.1224822998046875,-1.160369873046875,-0.23787961272522132,0.38037362278335146,None
235,13.792,-2.1601409912109375,-0.9049530029296875,-1.4829864501953125,-0.28451194380877043,0.3791919449182492,Hook
236,13.842,-1.4508514404296875,-1.0136260986328125,-0.96453857421875,-0.26582116406476164,0.2195182862968127,None
237,13.892,-1.1482086181640625,-0.498779296875,-0.998077392578125,-0.29031889858610815,0.010810769671102087,None
238,13.942,-0.31475830078125,-0.3104705810546875,-0.4396514892578125,-0.32013383175492105,-0.16535791728470392,None
239,13.992,0.0768585205078125,-0.32415771484375,-0.956878662109375,-0.40264288606776133,-0.3326031272136198,None
240,14.042,0.472808837890625,-0.379241943359375,-0.496063232421875,-0.38492324086638424,-0.4592214664386991,None
241,14.092,0.470062255859375,-0.3888397216796875,-0.387115478515625,-0.7055337836323218,-0.6506008379382354,None
242,14.141,0.596893310546875,-0.6303863525390625,-0.5363922119140625,-0.6480437879561931,-0.584912650939098,None
243,14.191,0.5001373291015625,-0.985107421875,-0.285247802734375,-0.6344077203620554,-0.5593898099464867,None
244,14.241,0.466033935546875,-0.986053466796875,0.0019989013671875,0.0020271692431838646,-0.42730363291810614,None
245,14.291,0.3105926513671875,-0.768829345703125,-0.136993408203125,-0.17542138921717684,-0.3695611058020883,None
246,14.341,-0.2487335205078125,-0.798919677734375,-0.2427215576171875,-0.29069254570842035,0.2854945090625494,None
247,14.391,-0.5754852294921875,-1.1366424560546875,-0.099884033203125,-0.16580099221683223,0.41327306915351514,None
248,14.454,-0.94390869140625,-1.9487457275390625,0.4304962158203125,-0.09646541667949962,0.5518809892896529,None
249,14.504,0.5005950927734375,-1.6863861083984375,-0.578155517578125,-0.1256534510214886,0.3951103522171269,None
250,14.554,0.2932891845703125,-0.7533111572265625,0.222137451171875,0.28284049844793846,-0.3498383481352759,None
251,14.604,0.0280609130859375,-0.4594573974609375,0.54388427734375,0.7639071198970904,-0.039382094164669014,None
252,14.653,0.5056610107421875,-0.3114166259765625,0.2985076904296875,0.6819213351266556,-0.06164991850866619,None
253,14.703,0.2895660400390625,-0.757904052734375,-0.270477294921875,-0.33611296692534726,-0.33858110910208755,None
254,14.753,-0.131072998046875,-1.2817230224609375,-0.9022369384765625,-0.47354886936661544,-0.33579975152355607,None
255,14.803,0.108306884765625,-1.5172882080078125,-0.4746856689453125,-0.49333720761678057,-0.3877689126486224,None
256,14.853,-0.2879638671875,-1.50274658203125,-0.8273773193359375,-0.3878001659694285,-0.4443855405105943,None
257,14.903,0.14617919921875,-1.03240966796875,-0.0890350341796875,-0.08592110322815306,-0.13968370230075328,None
258,14.953,0.3840484619140625,-0.5898284912109375,-0.1330108642578125,-0.21998356466304975,-0.5361574178762901,None
259,15.002,0.051116943359375,-0.5503387451171875,-0.33538818359375,-0.5203990371496957,-0.07906637866788291,None
260,15.052,0.2289581298828125,-0.2630462646484375,0.04388427734375,0.1645567191559294,-0.6514041578896678,None
261,15.102,0.23382568359375,-0.0962066650390625,0.118499755859375,0.15881792703072029,-0.6129755261346514,None
262,15.152,-0.01971435546875,-0.5234527587890625,0.1318511962890625,0.2442578862362274,0.036497041607911486,None
263,15.202,-0.26177978515625,-2.0115203857421875,0.4234619140625,0.08916445316693287,0.11646885661168922,None
264,15.597,-2.2713470458984375,0.16046142578125,0.7482147216796875,0.2020648994978222,0.12635638257596624,None
265,15.647,-0.7629547119140625,-0.550384521484375,-1.2011871337890625,0.17374006533378747,0.03390765963978301,Hook
266,15.696,-1.04754638671875,-1.4859466552734375,-1.0426025390625,0.227193153644647,0.04971505873376154,None
267,15.746,-1.3325042724609375,-1.51483154296875,-0.488037109375,0.34359056322734643,0.0624678615570732,None
268,15.796,-1.1390228271484375,-1.1864013671875,0.4603118896484375,0.5540388733607065,0.013500475239995093,None
269,15.846,-0.59393310546875,-0.460052490234375,0.3880462646484375,0.6447515279354484,0.7024075153615099,None
270,15.896,0.1430816650390625,0.1760101318359375,-0.0277099609375,0.5901740852162551,0.5593453398615171,None
271,15.946,0.6157073974609375,0.3074798583984375,-0.0126495361328125,0.5622375446532795,0.4311774830175403,None
272,15.995,0.80975341796875,0.0125274658203125,0.3095703125,0.6129931186694206,0.42108017299513334,None
273,16.045,0.8704681396484375,-1.044403076171875,0.1986083984375,0.5946278201167786,0.5186292052916588,None
274,16.095,0.715301513671875,-1.8301849365234375,0.0051727294921875,0.5748799304789183,0.6193652787345997,None
275,16.145,0.515289306640625,-1.3639678955078125,0.126312255859375,0.5740628742905567,0.6666466521324488,None
276,16.195,0.50213623046875,-0.59619140625,0.397674560546875,0.5549065457123893,-0.5738306145513563,None
277,16.245,0.4182891845703125,-0.3324432373046875,0.2934417724609375,0.6617604753299076,-0.6861881459132203,None
278,16.294,0.3918304443359375,-0.483428955078125,0.284149169921875,0.5067275591313115,-0.5727784414927185,None
279,16.344,0.544586181640625,-0.902008056640625,0.1194610595703125,0.13129257941081582,-0.5135632267288861,None
280,16.394,0.9688720703125,-1.1061859130859375,0.1665191650390625,0.08803633233479473,-0.5244880160549936,None
281,16.444,0.9064178466796875,-0.8867340087890625,0.128997802734375,0.021430594698787157,-0.5428939219834527,None
282,16.494,0.734710693359375,-0.423065185546875,0.2021026611328125,-0.04425628569886435,-0.5512562044272719,None
283,16.544,0.2785797119140625,-0.43096923828125,-0.048187255859375,-0.11111892345199738,-0.5404852227136969,None
284,16.594,-0.01593017578125,-0.6266937255859375,-0.0108642578125,-0.017333228678011115,0.025407372240821346,None
285,16.643,0.0606689453125,-0.81549072265625,0.1376953125,0.1664929428677325,-0.07316067772396302,None
286,16.693,0.1459503173828125,-1.069854736328125,0.100341796875,0.09338029863006145,-0.13458880278509547,None
287,16.743,0.1282501220703125,-1.2107696533203125,0.135711669921875,0.07464421725511275,-0.07478344510762974,None
288,16.793,-0.2313385009765625,-1.4283447265625,-0.2172088623046875,0.021485905664849512,-0.004286027176868484,None
289,16.843,-0.522552490234375,-1.512542724609375,-0.2359771728515625,-0.015580350292181726,0.07978348314299803,None
290,16.893,-0.55560302734375,-1.255279541015625,0.180908203125,0.04681520096294246,0.1560017583675822,None
291,16.942,-0.2242889404296875,-0.85150146484375,0.39617919921875,0.4218463055072681,0.23228746306508194,None
292,16.992,-0.2758026123046875,-0.931640625,0.30517578125,0.31129261944431685,0.270817570254997,None
293,17.042,-0.2918243408203125,-0.927398681640625,0.3260345458984375,0.3316596284485257,0.2845843630783605,None
294,17.092,-0.279510498046875,-0.784088134765625,0.1297607421875,0.16327182245813557,0.3317744388648646,None
295,17.142,-0.247894287109375,-0.654083251953125,0.264434814453125,0.37481132504227777,0.33149887853411725,None
296,17.192,-0.116058349609375,-0.579071044921875,0.381500244140625,0.5501522773400874,0.16506903011626126,None
297,17.241,-0.07440185546875,-0.6743927001953125,0.14581298828125,0.21133050849812915,0.10721100446023421,None
298,17.291,-0.063018798828125,-0.781036376953125,0.1585235595703125,0.19890994857189384,0.07882777844365155,None
299,17.341,0.1575927734375,-0.9569244384765625,0.0671234130859375,0.06997301267812334,-0.16211005709605783,None
300,17.391,-0.237579345703125,-1.5060577392578125,-0.2152557373046875,0.022977219519713973,-0.1449394221064969,None
301,17.441,-0.522918701171875,-1.7705841064453125,-0.00982666015625,0.05070837071596047,-0.10431835792203106,None
302,17.491,-0.1087799072265625,-1.484130859375,-0.32977294921875,0.03597866146142645,-0.10668206982698115,None
303,17.541,-0.2737579345703125,-1.4678802490234375,-0.26470947265625,0.047377774016649,-0.1054885034348594,None
304,17.59,-0.1125946044921875,-1.1917572021484375,-0.0782623291015625,0.11578648649761508,-0.1178098982207906,None
305,17.64,-0.0033111572265625,-0.8968353271484375,-0.1294403076171875,-0.14284987612162486,0.0036541572744095475,None
306,17.69,-0.0598602294921875,-0.8553009033203125,0.042877197265625,0.05006825137000576,0.06972941563142383,None
307,17.74,0.1808624267578125,-0.8244781494140625,-0.0689544677734375,-0.08334310511270258,-0.2135595925024039,None
308,17.79,0.5513153076171875,-0.9255828857421875,0.2163848876953125,0.22764419264593988,-0.5017195652048224,None
309,17.84,0.3321990966796875,-0.6942901611328125,0.2770843505859375,0.37066206370213756,-0.4060971621959787,None
310,17.889,0.0326995849609375,-0.4197998046875,0.1283111572265625,0.29229978103594506,-0.07428561021238389,None
311,17.939,-0.0318450927734375,-0.3928680419921875,0.0967864990234375,0.23920667647911475,0.07846212717815762,None
312,17.989,0.068756103515625,-0.4933929443359375,0.2376251220703125,0.4339127959577577,-0.1245733480742155,None
313,18.039,0.0162811279296875,-0.85919189453125,0.1943817138671875,0.22066119005397708,-0.01847910249772044,None
314,18.089,-0.541015625,-1.591033935546875,0.249359130859375,0.21125274767794375,0.05041815518356777,None
315,18.139,-0.4668121337890625,-1.6796722412109375,0.00567626953125,0.10324142341884814,0.0913776262801991,None
316,18.188,-0.6265411376953125,-1.91680908203125,0.35797119140625,0.08340392844521985,0.09276854727178593,None
317,18.238,-0.8158416748046875,-1.6969146728515625,0.7288818359375,0.15616480641703342,0.056356226468769643,None
318,18.288,-0.54931640625,-0.9673919677734375,0.3836517333984375,0.17956681308868802,-0.053222793916852196,None
319,18.338,-0.250701904296875,-0.4173126220703125,0.189056396484375,0.4126608631207973,0.48004323764137774,None
320,18.388,-0.009857177734375,-0.346649169921875,0.07366943359375,0.2078762641419949,0.02780367673548734,None
321,18.438,0.32073974609375,-0.29571533203125,0.2439117431640625,0.6363000526452236,-0.6417176382929886,None
322,18.488,0.0660400390625,-0.4353179931640625,0.2114715576171875,0.43695644043327964,-0.13520331366842456,None
323,18.537,0.3607940673828125,-0.150543212890625,0.358673095703125,0.45565470097432775,-0.17285807426067928,None
324,18.587,0.6187286376953125,-0.0634765625,0.39776611328125,0.4412771781545806,-0.1819876348880691,None
325,18.637,0.7245941162109375,-0.70159912109375,0.2879486083984375,0.3796839678340961,-0.6908129823316117,None
326,18.687,0.181427001953125,-1.993988037109375,-0.2417144775390625,0.347089508532331,-0.6163989941411632,None
327,18.737,0.095672607421875,-2.0300445556640625,0.18646240234375,0.38633296773109627,-0.5390676832400337,None
328,18.787,0.31707763671875,-1.0838775634765625,0.4216766357421875,0.40168483482694056,-0.49309829640011793,None
329,18.836,0.5500640869140625,0.0084075927734375,-0.1767425537109375,0.35276033048941385,-0.47197671059885826,None
330,18.886,0.66900634765625,0.639434814453125,-0.5545806884765625,0.3355814020061496,-0.43149323935546974,None
331,18.936,0.4396209716796875,0.1855926513671875,-0.676727294921875,0.27691135308539006,-0.33298247001274117,None
332,18.986,-0.2496795654296875,-1.678131103515625,0.0974884033203125,0.14098097926840833,-0.22327265096050528,None
333,19.405,-2.252960205078125,-0.2968292236328125,-0.2777099609375,0.22569129090535686,-0.2225985508138872,Hook
334,19.454,-1.240142822265625,-0.876190185546875,-1.543792724609375,0.22995105718088643,-0.2852034825770291,None
335,19.504,-1.6572418212890625,-1.1343536376953125,-1.1550140380859375,0.2986919683762673,-0.3699862922959969,None
336,19.554,-1.343963623046875,-0.941162109375,-0.4524078369140625,0.3764217142300425,-0.484882767498144,None
337,19.604,-0.9496002197265625,-0.7173919677734375,-0.3409271240234375,0.4553309650053791,-0.5923685310535814,None
338,19.654,-0.23284912109375,-0.7830810546875,-0.708099365234375,-0.6707036392594217,0.2153759413500403,None
339,19.704,0.8823394775390625,-0.730010986328125,-1.045074462890625,-0.6206713619714527,0.1255664009308519,None
340,19.753,0.9099884033203125,-0.78887939453125,-0.2032470703125,-0.4831518037406437,0.11880227550259875,None
341,19.803,0.5221710205078125,-0.8209991455078125,0.6054229736328125,-0.3486840346709612,0.1326095025645014,None
342,19.853,0.4708709716796875,-0.6554718017578125,0.779296875,-0.19720619889423915,0.12287433282621117,None
343,19.903,0.203582763671875,-0.8532867431640625,0.8753204345703125,-0.08908275386839778,0.09807793844600299,None
344,19.953,0.3006134033203125,-0.35888671875,0.4900970458984375,0.806811290161604,-0.4435373890464922,None
345,20.003,0.67156982421875,0.3194580078125,0.6871337890625,0.8388422324014114,-0.45503231044765885,None
346,20.053,0.877349853515625,0.2951507568359375,0.7460174560546875,0.850479811155398,-0.36688069867500017,None
347,20.102,0.434051513671875,-0.9346466064453125,0.6348114013671875,0.8744546118075232,-0.20374580563712802,None
348,20.152,0.4030914306640625,-1.3530426025390625,0.456207275390625,0.8790072105626883,-0.09362696261997135,None
349,20.202,0.9076995849609375,-0.3901824951171875,0.4679718017578125,0.9043963310664803,-0.017251059945465143,None
350,20.252,0.744720458984375,-0.059234619140625,0.1126251220703125,0.9321133538459438,0.10701912597870364,None
351,20.302,0.4860382080078125,-0.5439300537109375,-0.2985076904296875,-0.4811094827930043,-0.6166727074095052,None
352,20.352,0.7733612060546875,-0.808074951171875,0.0738677978515625,-0.44749665936512945,-0.5374663668093821,None
353,20.401,1.330657958984375,-1.0805511474609375,0.21087646484375,-0.46628575790250937,-0.4882130205649241,None
354,20.451,1.101806640625,-0.96136474609375,0.5459136962890625,-0.4443670799525699,-0.4803755113057039,None
355,20.501,0.816436767578125,-0.6410980224609375,1.1029205322265625,-0.44831892818155794,-0.5112786746932614,None
356,20.551,0.57611083984375,-0.21807861328125,0.383636474609375,-0.5096703733195921,-0.5557838054507714,None
357,20.601,0.1318359375,-0.261444091796875,0.4916534423828125,-0.5370810750799233,-0.560748575726261,None
358,20.651,-0.012298583984375,-0.3292083740234375,0.531951904296875,0.8503332355826879,0.019655676109212702,None
359,20.7,0.1068115234375,-0.6631317138671875,0.7677001953125,0.7567655091151193,-0.10471134452185873,None
360,20.75,-0.0619049072265625,-1.404632568359375,0.6590576171875,0.7176322454576441,-0.06544639278856969,None
361,20.8,-0.3628082275390625,-1.8082275390625,0.952239990234375,0.7579769605376262,-0.049256849810237355,None
362,20.85,-0.168701171875,-1.047027587890625,1.239410400390625,0.8300689196924422,-0.08216630383572905,None
363,20.9,0.069854736328125,-0.6051177978515625,1.141815185546875,0.8763722352888088,-0.08373021657087691,None
364,20.95,0.2548828125,-0.5482025146484375,0.6545562744140625,0.766641258671019,-0.2860540049522938,None
365,21,0.5724029541015625,-0.397552490234375,-0.0233001708984375,-0.058508639734331215,-0.820877404534757,None
366,21.049,0.823760986328125,-0.0020751953125,-0.210174560546875,-0.008997754251733844,-0.7269619922483201,None
367,21.099,0.6219635009765625,0.163177490234375,-1.2545166015625,-0.10402899352522686,-0.5949374347940259,None
368,21.149,0.54974365234375,-0.1860809326171875,-0.30706787109375,-0.19121665348084815,-0.44793696703432767,None
369,21.199,0.03436279296875,-1.101226806640625,0.6245880126953125,-0.3290959626933288,-0.3016241454395197,None
370,21.645,-3.7443695068359375,0.008697509765625,0.989227294921875,-0.36725452845345447,-0.3310878652262948,None
371,21.697,-1.4521026611328125,-0.9384002685546875,-1.890411376953125,-0.3846057857796204,-0.3793800879311564,None
372,21.747,-1.182403564453125,-0.7518463134765625,-0.61102294921875,-0.35926347203388737,-0.4432859030575055,Hook
373,21.797,-0.9666900634765625,-0.8513946533203125,-0.2322540283203125,-0.1272295660058142,-0.46021729928842664,None
374,21.847,-0.6786651611328125,-0.8240814208984375,0.7975921630859375,0.05807616493628634,-0.41951264912432784,None
375,21.897,-0.2392120361328125,-0.85028076171875,0.6233978271484375,0.591276448353886,0.2212627733941418,None
376,21.946,0.4133758544921875,-0.948028564453125,-0.142120361328125,-0.14825483300995274,-0.3959720574538183,None
377,21.996,0.5429534912109375,-0.6782379150390625,0.4797821044921875,0.5775071193237,-0.5470731366156844,None
378,22.046,0.6880645751953125,0.1574249267578125,-0.049102783203125,0.5533754159525998,-0.57887698904882,None
379,22.096,0.670013427734375,0.3128204345703125,0.554046630859375,0.5678225621121182,-0.5334837055437164,None
380,22.146,1.025299072265625,-0.134674072265625,0.6333160400390625,0.5542994130432198,-0.45125116728963305,None
381,22.196,0.9185943603515625,-1.44256591796875,0.985107421875,0.5029353633359717,-0.34875073039435867,None
382,22.246,0.9967803955078125,-1.740997314453125,0.2051849365234375,0.4972541850433678,-0.34192180762648694,None
383,22.295,0.69915771484375,-0.8679046630859375,0.37957763671875,0.5513136324359674,-0.3912867919718165,None
384,22.345,0.6772308349609375,0.12738037109375,0.10272216796875,0.6474907675097933,-0.44194707832323005,None
385,22.395,0.669342041015625,0.635589599609375,0.4345550537109375,0.6692822123238089,-0.4179810919726802,None
386,22.445,0.26263427734375,0.4517364501953125,0.0207061767578125,0.6332490601961421,-0.30363051115940914,None
387,22.495,-0.053253173828125,-0.0490264892578125,-0.092559814453125,0.5943494045279071,-0.1068237769151813,None
388,22.545,0.41546630859375,-0.5600433349609375,0.2463836669921875,0.4026901397607854,-0.5617664054855638,None
389,22.594,0.2109832763671875,-1.8414764404296875,1.6015167236328125,0.3221717627726113,-0.3814043380683424,None
390,22.973,-1.9533843994140625,1.7700653076171875,0.742523193359375,0.4757549548157281,-0.551842756783182,None
391,23.033,-1.9404296875,-0.230438232421875,1.29315185546875,0.4881786804389353,-0.4853640402825524,Hook
392,23.083,-1.639068603515625,-0.43975830078125,1.068328857421875,0.42654466045344636,-0.4140097162587669,None
393,23.133,-0.9243316650390625,-0.657440185546875,0.8824615478515625,0.32661701713792873,-0.3659263738666419,None
394,23.183,-0.496856689453125,-0.4846649169921875,0.35565185546875,0.591613424670582,0.6370717324490826,None
395,23.232,-0.2548370361328125,-0.5947723388671875,0.4614105224609375,0.6129549965589867,0.3206586472682884,None
396,23.282,-0.13177490234375,-0.536102294921875,0.7817840576171875,0.8247181264746166,0.13768773410499666,None
397,23.332,-0.08428955078125,-0.3302001953125,0.917633056640625,0.7256517492254533,0.10341020351010066,None
398,23.382,0.27276611328125,0.0466156005859375,0.83807373046875,0.521063467294084,0.08627411516432325,None
399,23.432,0.26519775390625,0.042755126953125,-0.1289520263671875,0.3432080390208189,0.07742900651245442,None
400,23.482,0.8586273193359375,-0.3264923095703125,0.0782470703125,0.3794968349599576,0.13525136771925478,None
401,23.531,1.1208648681640625,-0.9102020263671875,0.1399993896484375,0.3608661346654791,0.22727701744408998,None
402,23.581,1.3170318603515625,-1.1560211181640625,-0.1802978515625,0.2555140270593631,0.2560923409446596,None
403,23.631,1.1222381591796875,-1.0006256103515625,-0.3168182373046875,0.18194960638416505,0.27332830935540137,None
404,23.681,0.8140411376953125,-0.7176361083984375,-0.2117462158203125,0.11381729806430439,0.24797412882955247,None
405,23.731,0.551605224609375,-0.614349365234375,-0.03277587890625,-0.0532747902174752,-0.6675624185099738,None
406,23.781,0.307525634765625,-0.6708984375,0.3408660888671875,0.45296293126813847,-0.3782896690935841,None
407,23.83,-0.05023193359375,-0.8272857666015625,0.8905792236328125,0.4556918007777164,-0.37031784886317043,None
408,23.88,-0.0477142333984375,-0.5141448974609375,0.3454742431640625,0.5577264354251789,0.07680135500043657,None
409,23.93,0.0275115966796875,-0.193603515625,0.26495361328125,0.8074149766242786,-0.08354525515914106,None
410,23.98,-0.047210693359375,-0.1376190185546875,-0.3525390625,0.7188368782466983,-0.034006429457922725,None
411,24.03,0.5467376708984375,-0.506134033203125,-0.6301727294921875,-0.7796628179731001,-0.5602892731807174,None
412,24.08,1.6271820068359375,-1.1054840087890625,-1.576324462890625,-0.8873757651393777,-0.5016425722804304,None
413,24.429,-2.55279541015625,0.3663787841796875,-0.1330413818359375,-0.9214260881573461,-0.6428732119066173,None
414,24.478,-0.2696685791015625,-0.6958770751953125,-1.69659423828125,-0.9288983745835965,-0.6722264609892877,Hook
415,24.528,-0.6449432373046875,-1.4683837890625,-1.4118194580078125,-0.9110073045231176,-0.7036207108332607,None
416,24.578,-0.8932037353515625,-1.5191497802734375,-0.9759521484375,-0.8019944530846784,-0.7331499225163134,None
417,24.628,-0.705047607421875,-1.332672119140625,-0.409332275390625,-0.6385272203982738,-0.8036056466859902,None
418,24.678,-0.1501312255859375,-0.9203033447265625,-0.8932037353515625,-0.5252897941834164,-0.8875749313050099,None
419,24.728,0.9820556640625,0.0272979736328125,-0.60467529296875,-0.3423114457695462,-0.9238187880039052,None
420,24.777,1.3126678466796875,0.278961181640625,0.4746551513671875,-0.24018118242407535,-0.8955926075712966,None
421,24.827,1.1523284912109375,0.0116424560546875,0.9316558837890625,-0.23546040344990404,-0.8109181811188515,None
422,24.877,0.358673095703125,-1.4083099365234375,-0.03643798828125,-0.27819710762525995,-0.6785437473609196,None
423,24.927,0.2152099609375,-1.7566986083984375,-0.211639404296875,-0.26554837163805284,-0.6287245987273421,None
424,24.977,0.8636016845703125,-0.3367462158203125,0.279266357421875,-0.31016296563511503,-0.6051756611044439,None
425,25.027,0.87957763671875,0.501800537109375,-0.1391448974609375,-0.3465238221665119,-0.5317941508719423,None
426,25.077,0.4302825927734375,0.150970458984375,-0.2260589599609375,-0.4124315685186872,-0.4019107046421287,None
427,25.126,0.1699066162109375,-0.4364013671875,-0.092681884765625,-0.20774421866687381,-0.35590491847952727,None
428,25.176,-0.0989990234375,-1.8358154296875,0.2710418701171875,-0.4437890326608074,-0.2304953379145555,None
429,25.595,-2.321563720703125,0.074951171875,-0.66729736328125,-0.4522189575854811,-0.2157430511744565,None
430,25.645,-1.419097900390625,-0.6775360107421875,-1.2521209716796875,-0.4122512312996797,-0.19801656414673782,Hook
431,25.695,-1.432342529296875,-1.019134521484375,-1.225311279296875,-0.3453814126691561,-0.19137912967587414,None
432,25.744,-1.1471099853515625,-1.1182098388671875,-0.0648956298828125,-0.0870477473028115,-0.16810442637613798,None
433,25.794,-0.4830474853515625,-1.05218505859375,0.780731201171875,0.09274545169907225,-0.17829076123409018,None
434,25.844,-0.0875244140625,-0.821685791015625,0.1975250244140625,0.2337314562621265,0.10301666285841724,None
435,25.894,0.2874755859375,-0.6239013671875,0.726715087890625,0.7587390672531402,-0.2874741561227359,None
436,25.944,0.7016143798828125,-0.2835235595703125,-0.202301025390625,0.7554127509377214,-0.2770396052378888,None
437,25.994,0.821014404296875,-0.7361602783203125,0.16387939453125,0.7934091247297249,-0.15534690046683247,None
438,26.043,0.7646331787109375,-1.37908935546875,0.1231689453125,0.8064713908980007,-0.04387327676487159,None
439,26.093,0.915771484375,-1.2491455078125,0.431182861328125,0.7843909349952461,0.04034970332483333,None
440,26.143,0.6556396484375,-0.7850189208984375,0.2299041748046875,0.2810592551920391,-0.6254196222721379,None
441,26.193,0.7934112548828125,-0.0335235595703125,0.173919677734375,0.20496341950123761,-0.6011409077467015,None
442,26.243,0.592987060546875,-0.1634979248046875,0.0028533935546875,0.14143680061053168,-0.532774701185792,None
443,26.293,0.6816253662109375,-0.3345184326171875,0.111602783203125,0.10172941892414818,-0.4414044468395877,None
444,26.342,0.3318939208984375,-1.252410888671875,0.2412109375,0.008617635955323803,-0.3325614596257257,None
445,26.781,-1.9555816650390625,2.0901336669921875,1.1307830810546875,0.004003166035638342,-0.3720125076219379,None
446,26.831,-1.999267578125,0.0294036865234375,0.202789306640625,-0.06581487834232601,-0.2774500600645603,None
447,26.901,-1.9146270751953125,-0.517791748046875,0.962066650390625,-0.12620094490675868,-0.20186973789610055,Hook
448,26.951,-1.442291259765625,-0.217254638671875,0.909942626953125,-0.22738136577371634,-0.15094870830079313,None
449,27,-1.0539093017578125,-0.0202484130859375,0.861572265625,-0.3636000814640856,-0.0897653898429225,None
450,27.05,-0.614349365234375,0.3063507080078125,-0.36798095703125,-0.6025460897164079,-0.052103068883861056,None
451,27.1,0.0903778076171875,0.0753173828125,-0.863128662109375,-0.7834409700251577,-0.028586345438998934,None
452,27.15,0.005889892578125,-1.0417022705078125,-0.978424072265625,-0.8857602955884742,0.07854828029535706,None
453,27.2,0.7239990234375,-1.743743896484375,-0.85736083984375,-0.9412203933261415,0.1462783853238689,None
454,27.26,0.6833038330078125,-1.9454803466796875,0.5150299072265625,-0.9467404512412352,0.20815419578729846,None
455,27.309,0.7754669189453125,-1.2262115478515625,0.8734588623046875,-0.9230583921318677,0.22225937746201918,None
456,27.359,0.3480377197265625,-0.9710845947265625,0.2487030029296875,0.24810103701092853,-0.32798901086252324,None
457,27.409,0.4970550537109375,-0.074432373046875,0.112762451171875,0.15925859856684166,-0.3484219360685925,None
458,27.459,0.5839691162109375,0.361053466796875,0.429656982421875,0.021196325721022438,-0.35162624009485804,None
459,27.509,0.2623748779296875,0.3531951904296875,0.0991668701171875,-0.14375224297618724,-0.2880098670342702,None
460,27.559,-0.3315582275390625,-0.9437408447265625,-0.03082275390625,-0.03264278333266535,0.3313052595068506,None
461,27.608,0.13623046875,-1.88287353515625,-0.3876953125,-0.19000041602197476,0.40402829821569874,None
462,28.027,-1.975250244140625,-0.1359100341796875,-0.853179931640625,-0.15659040633294663,0.38421311352047616,None
463,28.077,-0.817169189453125,-0.8764190673828125,-1.5159454345703125,-0.15168649935539896,0.335235775005366,Hook
464,28.147,-0.629058837890625,-2.04901123046875,-1.9324798583984375,-0.05385857138303416,0.2662938620999521,None
465,28.197,0.1490020751953125,-0.713165283203125,-0.0855712890625,-0.11913349313129358,-0.2031183711719798,None
466,28.246,0.85894775390625,-0.31884765625,0.5425872802734375,0.15786909603092855,-0.2558688231173168,None
467,28.296,0.97113037109375,-0.014068603515625,0.147308349609375,0.3446860782638528,-0.24953298796075998,None
468,28.346,0.81195068359375,-0.272705078125,0.514068603515625,0.4750045740151017,-0.15169710374247247,None
469,28.396,0.332611083984375,-0.867156982421875,0.498809814453125,0.4986172698939304,-0.31550119906256896,None
470,28.446,0.494659423828125,-1.3919525146484375,-0.0454254150390625,0.5116116613289566,-0.17512654498406152,None
471,28.496,0.7155609130859375,-0.9494781494140625,-0.0086822509765625,0.5398832418021581,-0.08308075881559063,None
472,28.545,0.6945037841796875,-0.3748931884765625,0.159637451171875,0.5260337122019416,-0.01623953368241815,None
473,28.595,0.733612060546875,0.14739990234375,-0.0205230712890625,0.4591625722908751,0.048099099251801766,None
474,28.645,0.347412109375,-0.52734375,0.4154052734375,0.6188008274583803,-0.4596153673942089,None
475,28.695,0.5612335205078125,-0.9443359375,0.5642242431640625,0.5550950921888389,-0.3366856697834164,None
476,28.745,0.4830322265625,-2.0686187744140625,-0.466644287109375,0.5189984731991769,-0.22517057491481723,None
477,29.016,-7.1312408447265625,-1.7453765869140625,-6.34283447265625,0.9274427466620825,-0.6524131646460152,None
478,29.183,-1.9663848876953125,0.8525848388671875,0.668182373046875,0.899784800775373,-0.6717503490841699,None
479,29.243,-1.992767333984375,0.0319671630859375,1.161407470703125,0.8788885154531083,-0.6129754401981444,Hook
480,29.293,-1.5917510986328125,-0.1261444091796875,0.6086883544921875,0.8128350791927272,-0.5536319891104342,None
481,29.343,-1.37286376953125,-0.5332183837890625,0.7512664794921875,0.7560387628771914,-0.47082347387246337,None
482,29.393,-1.0947265625,-0.6680908203125,0.5108489990234375,0.6785342048734908,-0.39097792714804547,None
483,29.443,-0.396514892578125,-0.5961151123046875,-0.47515869140625,-0.6233075679251873,0.4614529866938824,None
484,29.492,0.206207275390625,-0.5251922607421875,-0.1701507568359375,-0.3082066051732625,-0.34990634909913115,None
485,29.542,1.0944061279296875,-0.1693878173828125,-0.0997314453125,-0.4257646693022764,-0.34040829595182015,None
486,29.592,0.99127197265625,-0.7559661865234375,0.4920806884765625,-0.4828139641057279,-0.24343186440741935,None
487,29.642,0.521820068359375,-1.459625244140625,0.166168212890625,-0.492904891025299,-0.11118841673668874,None
488,29.692,0.4197540283203125,-1.577972412109375,0.2145233154296875,-0.4826637055318009,-0.009311261749633792,None
489,29.742,0.75811767578125,-0.554107666015625,0.4375152587890625,0.619698244866019,-0.7318074615192353,None
490,29.791,1.1569976806640625,0.685272216796875,0.05328369140625,0.5105854549797421,-0.7313944840473188,None
491,29.841,0.516754150390625,0.5890045166015625,0.0843048095703125,0.4673667271929605,-0.6546575799963835,None
492,29.891,-0.0276031494140625,0.0961456298828125,0.2920074462890625,0.35946768985771316,-0.5186768348102357,None
493,29.941,-0.146392822265625,-1.0499114990234375,-0.0897216796875,-0.08514608472303523,0.13760553372962347,None
494,30.34,-2.035797119140625,0.331939697265625,0.0150299072265625,-0.04413698097350678,0.09079798450107482,None
495,30.39,-0.9791717529296875,-0.670989990234375,-0.9639739990234375,-0.07152184332036378,0.06533099340247855,None
496,30.439,-0.753692626953125,-1.307403564453125,-0.62091064453125,-0.07930508121357774,0.07062200584896743,Hook
497,30.489,-0.43157958984375,-1.1334991455078125,-0.7487640380859375,-0.13584248684839526,0.01992530417794493,None
498,30.539,-0.31787109375,-0.95843505859375,-0.5518951416015625,-0.15976884313495007,-0.02460400673667948,None
499,30.589,-0.2457427978515625,-0.8398284912109375,-0.827117919921875,-0.18700497925718226,-0.07148885018034216,None
500,30.639,-0.31072998046875,-0.846954345703125,-0.8547210693359375,-0.17110905315664102,-0.11945094842224849,None
501,30.689,-0.1671142578125,-0.691619873046875,-0.6703948974609375,-0.6960030674910288,0.17094403523230423,None
502,30.738,-0.3392791748046875,-0.65997314453125,-1.016510009765625,-0.6641890888747214,0.07820927917086883,None
503,30.788,0.1982269287109375,-0.6376800537109375,-0.84246826171875,-0.797344215164824,-0.18439255262324164,None
504,30.838,0.5141754150390625,-0.78326416015625,-0.6464080810546875,-0.665702030072578,-0.2734788862057203,None
505,30.888,0.8983306884765625,-1.3701171875,-0.5278167724609375,-0.4909000611551409,-0.29155678226256987,None
506,30.938,0.9893951416015625,-1.4309234619140625,-0.0687255859375,-0.35247180570808767,-0.28690861196627127,None
507,30.988,0.96929931640625,-0.75006103515625,-0.010009765625,-0.3168904497704426,-0.30109995880977036,None
508,31.038,0.9839019775390625,-0.101165771484375,0.11309814453125,-0.29633672389976345,-0.3166630637551667,None
509,31.087,0.739105224609375,-0.1819305419921875,0.058837890625,-0.3034160641787141,-0.2817511453376237,None
510,31.137,0.8612213134765625,-0.4267425537109375,0.00714111328125,-0.35522449075956486,-0.24819189988962134,None
511,31.187,0.7252960205078125,-1.4532012939453125,-0.3180999755859375,-0.4218825114517572,-0.1903319838672484,None
512,31.237,0.79132080078125,-1.9869384765625,-0.817962646484375,-0.46190135601894716,-0.16326410421784066,None
513,31.287,0.238311767578125,-1.5403594970703125,-0.439453125,-0.3813458744236202,-0.16394443777511958,None
514,31.337,0.3125762939453125,-0.891571044921875,-0.3114013671875,-0.3297386082189924,-0.3142186583893848,None
515,31.386,-0.0110321044921875,-0.71282958984375,-0.185333251953125,-0.2516307469049061,0.01497683393890468,None
516,31.436,-0.1613922119140625,-0.72454833984375,0.314605712890625,0.3982838864614194,0.2001832490234298,None
517,31.486,-0.3038482666015625,-0.6532440185546875,0.40924072265625,0.5308971940517093,0.3667137260103711,None
518,31.536,-0.1584625244140625,-0.6429290771484375,0.34344482421875,0.471174853257097,0.21243409551604453,None
519,31.586,-0.3462677001953125,-0.7950592041015625,0.43170166015625,0.47717560633158684,0.3574547246620519,None
520,31.636,-0.625762939453125,-0.9618377685546875,0.9411468505859375,0.43589614277000854,0.3179980034868194,None
521,31.685,-0.5315093994140625,-1.07159423828125,1.3912811279296875,0.392308632340659,0.273341904878191,None
522,31.735,-0.222930908203125,-1.41064453125,0.970672607421875,0.3152208570151346,0.2125347227817262,None
523,31.785,-0.06488037109375,-1.5017547607421875,0.998077392578125,0.3043463913185788,0.16807453429271058,None
524,31.835,-0.042999267578125,-1.275177001953125,0.8901214599609375,0.38010020346647055,0.1410847366177695,None
525,31.885,-0.1168212890625,-1.0572357177734375,0.5238494873046875,0.44848380305267566,0.1409347168461064,None
526,31.935,-0.033233642578125,-0.827606201171875,0.14654541015625,0.17435907042065635,0.039510363234273864,None
527,31.985,0.0318756103515625,-0.6533355712890625,0.1123046875,0.16940973010315263,-0.04802833150271266,None
528,32.034,0.2875213623046875,-0.4031829833984375,-0.0503997802734375,-0.12403935656253631,-0.5776303086361538,None
529,32.084,0.5722503662109375,-0.3247528076171875,0.1251678466796875,-0.03967086387514086,-0.5259653043598849,None
530,32.134,0.455169677734375,-0.4844818115234375,0.03192138671875,0.06574513713587139,-0.6839276614542051,None
531,32.184,0.6508941650390625,-0.6845855712890625,-0.0861053466796875,-0.12479408812939853,-0.6862038199164848,None
532,32.234,0.7870635986328125,-0.637725830078125,0.077484130859375,0.12061368067896262,-0.7747022440320481,None
533,32.284,0.560455322265625,-0.900848388671875,-0.2454833984375,-0.2629155093202532,-0.5146558898859589,None
534,32.333,0.4534912109375,-1.58819580078125,-0.056182861328125,-0.2813230622692661,-0.4140147265185901,None
535,32.383,0.3393096923828125,-1.4976806640625,-0.221710205078125,-0.33070978179443583,-0.3530213561201493,None
536,32.433,0.47259521484375,-0.6477813720703125,0.078704833984375,0.12061209167413478,-0.5865607220331815,None
537,32.483,0.386199951171875,-0.07122802734375,0.2839813232421875,0.0533428490499604,-0.58625129234521,None
538,32.533,0.1193084716796875,-0.0433197021484375,0.5364227294921875,-0.03630603189258914,-0.5553630062455877,None
539,32.583,0.07763671875,-0.697967529296875,0.175933837890625,0.2444206011585967,-0.10723683739008749,None
540,32.632,0.8394927978515625,-2.0328369140625,-0.3438262939453125,0.06390446177979427,-0.007734598080945296,None
541,32.971,-2.2785491943359375,0.9413604736328125,-0.433868408203125,-0.005699428879714035,-0.15850245173728475,None
542,33.021,-1.080718994140625,-0.360809326171875,-1.4537506103515625,-0.05717664540882382,-0.22691426929598005,None
543,33.071,-0.9465179443359375,-0.9360809326171875,-1.306884765625,-0.07935998273213549,-0.28877957031041995,Hook
544,33.121,-0.9211578369140625,-1.3734893798828125,-1.027069091796875,0.009938748935560581,-0.35533395610174767,None
545,33.171,-0.7023773193359375,-1.2811126708984375,-0.7151031494140625,0.06865295003099349,-0.46075034281994504,None
546,33.221,-0.056121826171875,-1.0414276123046875,-0.4898681640625,0.11581464180087818,-0.5793748705660903,None
547,33.27,0.4681549072265625,-0.5783233642578125,-0.7315216064453125,-0.7844620594061155,-0.44866825040749403,None
548,33.32,0.7881622314453125,-0.40057373046875,-0.2801971435546875,-0.718984166019053,-0.513720315548594,None
549,33.37,0.68115234375,-0.4187469482421875,-0.1775665283203125,-0.3903939034614203,-0.8316342878697506,None
550,33.42,0.704986572265625,-0.60693359375,0.0590362548828125,0.09681279646511734,-0.756320739768209,None
551,33.47,0.69647216796875,-0.9524993896484375,-0.4460296630859375,0.14131264620940728,-0.693373812717435,None
552,33.52,0.474761962890625,-1.9192047119140625,-0.353363037109375,0.23098188753037963,-0.6171678346207223,None
553,33.569,0.434661865234375,-1.8237457275390625,-0.5391998291015625,0.2870761262141702,-0.598339601876132,None
554,33.619,0.63360595703125,-1.0515899658203125,-0.28033447265625,0.33776465451700344,-0.6223866990590188,None
555,33.669,0.6450347900390625,-0.2087860107421875,0.2430572509765625,0.4297488633704061,-0.6623437824567023,None
556,33.719,0.4948883056640625,0.2368316650390625,0.60333251953125,0.47402717014756923,-0.677399602355574,None
557,33.769,0.2017974853515625,0.2353515625,0.9986419677734375,0.40522755668793187,-0.6458677723645233,None
558,33.819,-0.0264129638671875,-0.3831939697265625,0.2472381591796875,0.5421520198785071,0.057822316311489624,None
559,33.869,0.06134033203125,-1.5417938232421875,-0.667755126953125,0.39865981163843844,0.19436696430514389,None
560,34.307,-2.2624664306640625,-0.2380828857421875,-0.3789520263671875,0.3696814651923495,0.11559624870935019,None
561,34.357,-1.4002227783203125,-0.6924591064453125,-1.553497314453125,0.33762512895167074,0.05055906067211909,Hook
562,34.407,-1.24609375,-1.1102447509765625,-1.2131500244140625,0.3691049211193436,-0.07917038297589173,None
563,34.457,-0.691131591796875,-0.73516845703125,-1.39044189453125,0.3418067119294172,-0.23486308259037428,None
564,34.506,-0.2500762939453125,-0.546875,-0.41259765625,-0.6022783790273051,0.3429091453963654,None
565,34.556,-0.1307373046875,-0.140838623046875,-0.5093536376953125,-0.6906491901703872,0.11525613941272486,None
566,34.606,0.5157928466796875,0.4173736572265625,-1.26318359375,-0.6611144701740514,-0.11354671082916312,None
567,34.656,0.8929595947265625,-0.161346435546875,-0.7366943359375,-0.49782052819929923,-0.16367520908060984,None
568,34.706,1.3804168701171875,-0.6610565185546875,-1.8675079345703125,-0.2938747790029312,-0.19776066442140336,None
569,34.756,1.3143310546875,-1.5798492431640625,-0.8865814208984375,0.011963405502544407,-0.13004285076367675,None
570,34.806,1.116180419921875,-1.259307861328125,-0.3921356201171875,0.3260857313407803,-0.15086225300659326,None
571,34.855,1.050445556640625,-0.454132080078125,0.5081787109375,0.54020932213317,-0.1362898058237274,None
572,34.905,0.5755615234375,-0.1798095703125,0.6537322998046875,0.5629677357653906,-0.10009977971262161,None
573,34.955,0.64007568359375,-0.0425567626953125,0.2361602783203125,0.5071077854569326,-0.048218114844542435,None
574,35.005,0.59564208984375,-0.513031005859375,0.4094696044921875,0.6238073261104077,-0.6719999711031374,None
575,35.055,0.105560302734375,-1.0463104248046875,-0.019317626953125,-0.01845946953663055,-0.10036164521392116,None
576,35.105,0.1430511474609375,-0.8639678955078125,0.3946380615234375,0.4154822147671069,-0.14892733453762266,None
577,35.154,0.182708740234375,-0.5780181884765625,0.5745697021484375,0.7049879970078551,-0.21875124335744217,None
578,35.204,0.016571044921875,-0.5966949462890625,0.0489959716796875,0.08183683603339224,-0.02766763645989874,None
579,35.254,0.2737884521484375,-0.8942718505859375,0.117156982421875,0.1298982516140978,-0.2904750879174436,None
580,35.653,-1.7680816650390625,2.1883544921875,1.9968414306640625,0.10514264041653615,-0.3302678125246886,None
581,35.736,-2.1089630126953125,-0.6970977783203125,0.974273681640625,-0.03525988606504394,-0.3307169524392226,Hook
582,35.786,-1.4322662353515625,-0.378509521484375,0.81976318359375,-0.21855476152823106,-0.38857982665185753,None
583,35.836,-0.9193878173828125,-0.119232177734375,0.3648834228515625,-0.4222101024784647,-0.4294152964284148,None
584,35.886,-0.435821533203125,0.032806396484375,-0.1625823974609375,-0.6063248477163184,-0.469390769449111,None
585,35.936,0.240753173828125,0.0511322021484375,-0.5577239990234375,-0.6957335829713773,-0.47614322543321985,None
586,35.986,0.7082672119140625,-0.121368408203125,-0.10455322265625,-0.7858228576500803,-0.43469554984099074,None
587,36.035,1.32421875,-0.223785400390625,0.087493896484375,-0.8845493495642032,-0.32950724070849063,None
588,36.085,0.71063232421875,-1.5398406982421875,-0.09014892578125,-0.9369813158574549,-0.19365213734497885,None
589,36.171,0.0855712890625,-2.018707275390625,-0.769287109375,-0.9264704311917132,-0.18586306188537013,None
590,36.221,0.4880218505859375,-0.7123260498046875,0.136383056640625,0.18804593071843656,-0.5582684952701811,None
591,36.271,0.6114044189453125,-0.09417724609375,0.5886993408203125,0.2914446259047314,-0.6284150695050332,None
592,36.321,0.66754150390625,0.0761566162109375,0.56500244140625,0.31356931249818726,-0.6610214492908699,None
593,36.371,0.4615478515625,-0.235015869140625,-0.038665771484375,0.2319125367976889,-0.6405928258194425,None
594,36.42,0.440673828125,-0.8382568359375,-0.6539459228515625,0.14644331044226985,-0.586675677542674,None
595,36.47,0.6846923828125,-1.2566986083984375,-0.771697998046875,0.14765358529105374,-0.5465880281820352,None
596,36.52,0.705535888671875,-1.156768798828125,-0.324951171875,0.15856164928414404,-0.5248619651900007,None
597,36.57,0.6492156982421875,-0.73046875,-0.0070343017578125,-0.009629399780949477,-0.6642952656968072,None
598,36.62,0.35040283203125,-0.56927490234375,0.154937744140625,0.26261403404405453,-0.510647129634175,None
599,36.67,0.2999420166015625,-0.502593994140625,-0.005401611328125,-0.010746844278782914,-0.5124443684823745,None
600,36.719,-0.127105712890625,-0.8428955078125,0.0646820068359375,0.07651292093611478,0.14868326820668532,None
601,36.769,-0.2177581787109375,-1.6533050537109375,0.09100341796875,0.09879116830696896,0.22608839842210324,None
602,36.849,-0.53179931640625,-2.008148193359375,0.2027435302734375,0.18118264138339393,0.19515463767677999,None
603,36.899,-0.39324951171875,-1.1891937255859375,0.645263671875,0.2995405444650848,0.11845017802785632,None
604,36.949,-0.2145843505859375,-0.7170562744140625,0.433319091796875,0.5172009730134225,0.248114756685919,None
605,36.999,-0.0005035400390625,-0.4123992919921875,0.198150634765625,0.43308448474203876,0.0011005528523994573,None
606,37.048,0.219940185546875,-0.330169677734375,0.368194580078125,0.7445049225929642,-0.40635503862830574,None
607,37.098,0.2397003173828125,-0.331756591796875,0.3990325927734375,0.7689510661345867,-0.41933747546215644,None
608,37.148,0.489654541015625,-0.3665924072265625,0.4641571044921875,0.7549183341996322,-0.4019374866078774,None
609,37.198,0.8734283447265625,-0.6500091552734375,0.5146484375,0.7013350412601413,-0.336548227252538,None
610,37.248,0.55712890625,-1.1787261962890625,0.044036865234375,0.647115213733246,-0.24112149593440588,None
611,37.298,0.5428314208984375,-1.26763916015625,-0.0203704833984375,0.6309111255426514,-0.1886070095959583,None
612,37.347,0.506256103515625,-1.1248931884765625,0.0287322998046875,0.612343182368525,-0.16751704546981672,None
613,37.397,0.5138702392578125,-0.7882843017578125,0.0615081787109375,0.0777914610711547,-0.5449346893025407,None
614,37.447,0.491180419921875,-0.577789306640625,0.0713958740234375,0.12263461643616243,-0.6448425087841736,None
615,37.497,0.4303741455078125,-0.54833984375,0.0652618408203125,0.11818304877653979,-0.6147213603205597,None
616,37.547,0.368896484375,-0.75750732421875,0.170318603515625,0.21936441673406362,-0.4291495188716093,None
617,37.597,0.2346038818359375,-0.9560394287109375,-0.071533203125,-0.07461387278913288,-0.237694101454646,None
618,37.646,-0.1348724365234375,-1.230499267578125,-0.0621490478515625,-0.09163306275748326,-0.16634838970392016,None
619,37.696,-0.1819915771484375,-1.244140625,0.1011505126953125,-0.10841312333178939,-0.10928657872013675,None
620,37.746,-0.4079742431640625,-1.3422698974609375,0.0563201904296875,-0.1031463241092756,-0.0708716133552554,None
621,37.796,-0.382476806640625,-1.3562774658203125,0.0629730224609375,-0.08063696256483506,-0.05599773538125969,None
622,37.846,-0.3784332275390625,-1.303985595703125,0.055999755859375,-0.012446694281791033,-0.06152466042938191,None
623,37.896,-0.3137359619140625,-1.0770721435546875,0.2047576904296875,0.051365157082950266,-0.08052039474712885,None
624,37.946,-0.1785736083984375,-0.80548095703125,0.16436767578125,0.19994110196138581,0.2122712571442879,None
625,37.995,-0.0201568603515625,-0.5672607421875,0.135101318359375,0.23168420402256712,0.03454621073506733,None
626,38.045,0.1508331298828125,-0.3913726806640625,0.2641448974609375,0.5594267871617631,-0.3042971845131359,None
627,38.095,0.0161285400390625,-0.618804931640625,0.17083740234375,0.2661209331270807,-0.02511621026524163,None
628,38.145,-0.1502685546875,-1.004364013671875,0.2184600830078125,0.21254119761390722,0.1446594528004884,None
629,38.195,-0.16888427734375,-1.4571533203125,0.0187225341796875,0.16809871966058976,0.17195990531140307,None
630,38.245,-0.235076904296875,-1.1938323974609375,-0.0992431640625,0.11144595274506429,0.2080843233285242,None
631,38.294,0.0859527587890625,-0.4103240966796875,-0.067626953125,-0.16261964606545015,-0.2024087422271113,None
632,38.344,0.249237060546875,0.1012115478515625,-0.1959075927734375,-0.3155667491919622,-0.14945170169135905,None
633,38.394,0.076171875,-0.0758209228515625,0.34405517578125,-0.4821018367159884,-0.06765375124100216,None
634,38.444,-0.29779052734375,-1.6143798828125,-0.8846893310546875,-0.6515308318343611,0.03911911564780466,None
635,38.892,-1.93621826171875,-0.7018280029296875,-0.4233245849609375,-0.6521174627729743,0.04640138485917759,Hook
636,38.942,-1.378570556640625,-0.65191650390625,-1.5168609619140625,-0.6242491991838507,0.002784310303413361,None
637,38.992,-1.7171630859375,-1.20526123046875,-1.3225555419921875,-0.4477763665878889,-0.04131327534819275,None
638,39.042,-1.253326416015625,-0.6902923583984375,0.2186279296875,-0.2598056445283215,-0.17024051173639942,None
639,39.092,-0.5944366455078125,-0.327850341796875,0.100311279296875,-0.3229708096281018,-0.3263067387332166,None
640,39.142,0.33154296875,0.1950531005859375,-1.0326690673828125,-0.4179780352568538,-0.4732345861688767,None
641,39.192,0.72027587890625,-0.101104736328125,-0.45953369140625,-0.4043602016364152,-0.5022682936706562,None
642,39.241,0.77337646484375,-0.5838623046875,-0.227752685546875,-0.36340952017458594,-0.7769282962112033,None
643,39.291,0.9550323486328125,-1.0742340087890625,-0.003173828125,-0.35305531241925175,-0.7155917486851893,None
644,39.341,0.70501708984375,-1.7376861572265625,-0.1681671142578125,-0.27163236738105906,-0.6432004447580176,None
645,39.391,0.4952239990234375,-1.82855224609375,0.440338134765625,-0.22197036186078803,-0.5824886097560729,None
646,39.441,0.2554779052734375,-1.42608642578125,0.0942840576171875,-0.2223106101086667,-0.5741116648271065,None
647,39.491,0.4736480712890625,-1.06707763671875,0.3509674072265625,-0.22974210565830852,-0.5731903637483804,None
648,39.54,0.3600921630859375,-0.7035980224609375,0.4024200439453125,0.4964774649355912,-0.40599489034200925,None
649,39.59,0.4268646240234375,-0.3948822021484375,0.3549957275390625,0.6685502532536873,-0.626545883447826,None
650,39.64,0.67431640625,-0.3482208251953125,0.0619964599609375,0.6194674715821794,-0.6348354210423942,None
651,39.69,0.641387939453125,-0.70635986328125,-0.0789031982421875,-0.11101351240949589,-0.6699510517412315,None
652,39.74,0.5066986083984375,-1.0223541259765625,-0.4763641357421875,-0.23180727632776377,-0.6822248421027741,None
653,39.79,0.6933441162109375,-1.2633514404296875,-0.3660430908203125,-0.28576888274726986,-0.7234801728587126,None
654,39.839,0.8734588623046875,-1.5693206787109375,-0.625518798828125,-0.33408663742078815,-0.7749667598505505,None
655,39.889,0.635498046875,-1.2197265625,-0.869110107421875,-0.32032004959871563,-0.8221647909753818,None
656,39.939,0.359832763671875,-0.6514892578125,-0.2228851318359375,-0.32369707626891836,-0.4631563820357839,None
657,39.989,0.0753631591796875,-0.2403564453125,0.258331298828125,0.732118527303807,-0.2088705176794415,None
658,40.039,-0.050567626953125,-0.1713409423828125,0.396697998046875,0.7904643963601902,-0.209652336921728,None
659,40.089,0.04425048828125,-0.2577667236328125,0.3885345458984375,0.8332917759138218,-0.09447969325155013,None
660,40.139,0.124267578125,-0.59808349609375,0.1794891357421875,0.2874420416921471,-0.19518029480032256,None
661,40.188,0.3997039794921875,-1.2911834716796875,0.575653076171875,0.22548491010820743,-0.159847804711223,None
662,40.288,-0.5152740478515625,-2.0150604248046875,0.3548126220703125,0.19609866856978225,-0.2073948679032206,None
663,40.338,0.0652923583984375,-0.7945556640625,0.9946136474609375,0.24685849599233234,-0.30423527453380633,None
664,40.388,0.0540618896484375,-0.50091552734375,0.6731719970703125,0.8022615768549332,-0.06429565728461478,None
665,40.438,0.2053070068359375,-0.5063934326171875,0.5234222412109375,0.7187010942670674,-0.27132807995248903,None
666,40.487,0.0707550048828125,-0.68951416015625,0.34613037109375,0.44863702209362305,-0.09132588157039348,None
667,40.537,0.2909698486328125,-0.5856475830078125,0.5435333251953125,0.680261360269736,-0.3421813292303172,None
668,40.587,0.6482696533203125,-0.4269256591796875,0.434814453125,0.6926798312970603,-0.3786815990580136,None
669,40.637,0.727783203125,-0.463165283203125,0.721099853515625,0.7033641952540144,-0.37810855272211286,None
670,40.687,0.6020050048828125,-0.70416259765625,0.474334716796875,0.5586836461165644,-0.5784103706332145,None
671,40.737,0.5922698974609375,-0.8048248291015625,0.3206634521484375,0.370130117835988,-0.5643605516248392,None
672,40.786,0.5011138916015625,-0.642791748046875,0.3244171142578125,0.4505672898007041,-0.5712418865506651,None
673,40.836,0.5763092041015625,-0.517547607421875,0.1869049072265625,0.3396649062993941,-0.7232619498268327,None
674,40.886,0.5817718505859375,-0.6398468017578125,0.0977935791015625,0.15108458852409407,-0.6684710432945528,None
675,40.936,0.253692626953125,-1.1301116943359375,0.2397613525390625,0.16163500887498033,-0.6315831619273319,None
676,40.986,0.3238525390625,-1.2184295654296875,0.4345550537109375,0.17479693910575472,-0.6092176497608158,None
677,41.036,0.244110107421875,-1.030426025390625,0.453948974609375,0.15412193222832116,-0.5867601713437325,None
678,41.085,0.2883148193359375,-0.509185791015625,0.2679595947265625,0.4657016201620895,-0.4479845057359965,None
679,41.135,0.289947509765625,-0.1462860107421875,0.2154541015625,0.4400105853148774,-0.38998302311376964,None
680,41.185,0.11541748046875,-0.135772705078125,0.1405029296875,0.7191080438217853,-0.5086074907004204,None
681,41.235,0.022705078125,-0.396331787109375,0.4282989501953125,0.7339667975263717,-0.03887978981719104,None
682,41.285,-0.6900634765625,-1.6749267578125,0.1016082763671875,0.7062155251325573,0.12812793103853012,None
683,41.656,-2.3027191162109375,4.8724822998046875,-0.56396484375,0.8008933568943521,-0.5100774396117717,None
684,41.713,-1.934783935546875,1.2323760986328125,0.8327178955078125,0.8794446634265971,-0.6509660256258087,None
685,41.793,-1.998443603515625,-0.529510498046875,1.076416015625,0.8779415556793407,-0.6348234402675017,Hook
686,41.843,-1.85394287109375,-0.4724578857421875,1.2263641357421875,0.8348141676936441,-0.6204379071741656,None
687,41.893,-1.5143280029296875,-0.6098785400390625,0.923370361328125,0.7931312557342597,-0.6033669818884418,None
688,41.943,-1.387054443359375,-0.6693267822265625,0.907989501953125,0.7633091612458315,-0.5660807594045741,None
689,41.993,-1.0750885009765625,-0.757568359375,0.00543212890625,0.6603116299373928,-0.5419765389194482,None
690,42.042,-0.0502166748046875,-0.5189208984375,-1.051177978515625,0.575041123545849,-0.5617913460928319,None
691,42.092,0.7847747802734375,-0.2529449462890625,-0.6064453125,0.5952655286432895,-0.5454722107188806,None
692,42.142,0.93798828125,0.0528564453125,0.1855010986328125,0.6212721918040636,-0.47886666167788294,None
693,42.192,0.666168212890625,-0.4229736328125,0.41278076171875,0.6191431247216598,-0.33553701899694355,None
694,42.242,0.1287994384765625,-1.577178955078125,0.1490631103515625,0.5958374334247585,-0.15829856388100147,None
695,42.312,0.0877532958984375,-2.0994415283203125,-0.037811279296875,0.6141186209583578,-0.030429797511878697,None
696,42.361,0.5133514404296875,-0.7757110595703125,-0.3758697509765625,-0.4360550277740305,-0.5116821348103328,None
697,42.411,0.994110107421875,0.1925811767578125,1.0157318115234375,-0.3881497613289959,-0.5546998734334243,None
698,42.461,0.7809906005859375,0.05743408203125,1.016357421875,-0.3071965229659632,-0.5526513623712953,None
699,42.511,0.0761566162109375,-1.2727203369140625,0.100067138671875,-0.3357799924563506,-0.4660382341054063,None
700,42.561,-0.1966094970703125,-1.88079833984375,-0.6109619140625,-0.3189733144259358,-0.34476879308627156,None
701,42.611,0.4603271484375,-0.6817779541015625,-0.261627197265625,-0.35826907725280777,-0.5332594997525534,None
702,42.66,0.8883514404296875,0.6361846923828125,-0.8307647705078125,-0.43814804356675235,-0.5042759330659634,None
703,42.71,0.459320068359375,0.4351806640625,-0.272857666015625,-0.51438128164211,-0.42841647797252047,None
704,42.76,-0.1640167236328125,-0.25146484375,-0.0635528564453125,-0.24502644351066688,0.5344662357547177,None
705,42.81,-0.79083251953125,-1.3842315673828125,0.1947021484375,-0.4738152667898242,0.6188754280876461,None
706,43.278,-2.016693115234375,-0.75677490234375,-0.1620635986328125,-0.48046502945754527,0.5791505398097729,None
707,43.328,-1.2589263916015625,-0.9539947509765625,-1.715576171875,-0.49963031171244826,0.506584225515804,Hook
708,43.378,-1.0517425537109375,-1.3574981689453125,-1.70355224609375,-0.4341366129304168,0.4670046884416332,None
709,43.428,-0.8585968017578125,-1.2882232666015625,-1.2568817138671875,-0.19652988541297248,0.38682065820881695,None
710,43.478,-0.637451171875,-0.881317138671875,0.22406005859375,-0.03826039908111524,0.251125896151695,None
711,43.528,0.1843109130859375,0.1305084228515625,-0.15667724609375,-0.09212424144908962,0.07756255608551173,None
712,43.578,0.6128082275390625,0.2574310302734375,0.2080841064453125,-0.06767243477811673,0.014347653710751385,None
713,43.627,0.7574310302734375,0.1628570556640625,0.2522125244140625,-0.10001373855431962,0.026770484837707414,None
714,43.677,0.738555908203125,-0.476470947265625,-0.230438232421875,-0.43538910759574206,-0.81283211914109,None
715,43.727,0.4659881591796875,-1.4488983154296875,-1.2589874267578125,-0.5332955923163603,-0.7756337091214535,None
716,43.777,0.5504302978515625,-1.406341552734375,-1.62615966796875,-0.5322013341668532,-0.7764159525968848,None
717,43.827,0.50390625,-0.9992523193359375,-0.7270660400390625,-0.5572112200459466,-0.7853558320701974,None
718,43.877,0.467315673828125,-0.425140380859375,-0.7567138671875,-0.5354210743091375,-0.8019354490830342,None
719,43.926,0.28448486328125,-0.122100830078125,-0.15643310546875,-0.4901241917442017,-0.8051810694587673,None
720,43.976,0.2332305908203125,0.169464111328125,-0.13983154296875,-0.491924048636418,-0.8014466007189367,None
721,44.026,0.340240478515625,-0.0490264892578125,0.0603485107421875,-0.5409232954022216,-0.7682216221964009,None
722,44.076,0.39251708984375,-1.0794525146484375,-0.3300933837890625,-0.6103394402052752,-0.7052943471894431,None
723,44.534,-2.1014862060546875,0.05963134765625,-1.342987060546875,-0.6493293374830839,-0.7733632540521179,None
724,44.584,-1.4098968505859375,-0.9465179443359375,-1.1068572998046875,-0.6496462995132998,-0.7952031980091224,Hook
725,44.634,-1.664764404296875,-1.2575531005859375,-1.3239898681640625,-0.6653963586666551,-0.8322582975562574,None
726,44.684,-1.566741943359375,-1.1763458251953125,-0.86541748046875,-0.6685091954195852,-0.9090389345989591,None
727,44.734,-0.825653076171875,-0.20648193359375,-1.1766815185546875,-0.731206946475367,-0.9835059727943455,None
728,44.784,0.1194000244140625,-0.081512451171875,-1.229278564453125,-0.7701965746763554,-0.9978370305928432,None
729,44.834,0.7127227783203125,-0.2488861083984375,-0.761474609375,-0.703569040387099,-0.9676187262534909,None
730,44.883,0.8360443115234375,-0.4256439208984375,-0.5540313720703125,-0.6628357338776553,-0.938562734290382,None
731,44.933,0.9387969970703125,-0.677947998046875,-0.41546630859375,-0.6074123773042538,-0.9200368700626282,None
732,44.983,0.9554595947265625,-1.103515625,-0.753936767578125,-0.4785175124633969,-0.9079803820987473,None
733,45.033,0.54254150390625,-1.623779296875,-1.3962860107421875,-0.2642613016488124,-0.8961331331495671,None
734,45.083,0.944854736328125,-0.59423828125,0.078277587890625,0.07538227263969903,-0.8390231878851709,None
735,45.133,1.4562225341796875,0.5521087646484375,1.3154754638671875,0.2056179012723861,-0.7886760630663134,None
736,45.182,0.550262451171875,0.375030517578125,0.58843994140625,0.17735715134534805,-0.8349509607707853,None
737,45.232,0.4152069091796875,-0.3406829833984375,-0.0589599609375,-0.17052907334378467,-0.7684565115624973,None
738,45.282,0.11968994140625,-1.1344146728515625,-0.6936492919921875,-0.1604944232767217,-0.662776160454874,None
739,45.332,0.659759521484375,-0.3909149169921875,-0.1942901611328125,-0.22604733426942564,-0.6169240944540569,None
740,45.382,0.7139129638671875,0.2268524169921875,0.5177764892578125,-0.33245353904803737,-0.5633160598421882,None
741,45.432,0.076202392578125,0.0152587890625,0.8990631103515625,-0.5192495878609311,-0.4546048321655341,None
742,45.481,-0.070953369140625,-1.0911865234375,-0.4863739013671875,-0.7225494487170415,-0.3356543953843733,None
743,45.658,1.9687042236328125,-1.574462890625,-2.2884674072265625,-0.6946969306810008,-0.2056267483324319,None
744,45.91,-2.5119476318359375,0.36981201171875,0.8781890869140625,-0.7441690904295518,-0.2646039124236604,None
745,45.96,-1.3935546875,-0.48114013671875,-1.0533905029296875,-0.7784947916574523,-0.2566056342929609,None
746,46.01,-1.541259765625,-1.2648468017578125,-0.9934539794921875,-0.8027096538352675,-0.30550785337143693,Hook
747,46.06,-1.505584716796875,-1.11822509765625,-1.257537841796875,-0.7661768031380584,-0.4091352970345016,None
748,46.109,-1.0528564453125,-1.053436279296875,-1.1422882080078125,-0.6829448052056084,-0.5602433421197937,None
749,46.159,-0.202423095703125,-0.498748779296875,-0.693878173828125,-0.8120021484263753,0.23050412353608393,None
750,46.209,0.639434814453125,0.1243743896484375,-1.063568115234375,-0.7913822784450747,-0.020626349865207123,None
751,46.259,1.7790679931640625,0.400634765625,-0.0778350830078125,-0.6640170483238891,-0.10774389274714233,None
752,46.309,1.5660247802734375,0.1299591064453125,0.949249267578125,-0.5128241168295128,-0.04868090389428871,None
753,46.359,1.000732421875,-0.777496337890625,0.74017333984375,-0.485887581624662,0.09549789994344998,None
754,46.408,0.4682769775390625,-1.7799835205078125,-0.2243804931640625,-0.4516031581130712,0.1833626508540155,None
755,46.458,0.3885650634765625,-1.42510986328125,-0.3272552490234375,-0.45983376289822925,0.20349604168984314,None
756,46.508,0.744720458984375,-0.2444610595703125,-0.116485595703125,-0.4737014518647759,0.2192130292298247,None
757,46.558,0.5713348388671875,0.28228759765625,0.148223876953125,-0.47979898326972514,0.3149079602074383,None
758,46.608,0.0592803955078125,0.14923095703125,0.2978363037109375,-0.5525355318056447,0.4512284535960015,None
759,46.658,-0.074249267578125,-0.16009521484375,-0.4534912109375,-0.6511475844291084,0.5686957559404007,None
760,46.708,-0.277740478515625,-0.91180419921875,-0.7328643798828125,-0.7537857054704321,0.6408852583902028,None
761,47.166,-2.15191650390625,0.3939056396484375,-0.1102142333984375,-0.8029808657298203,0.5931168905295686,None
762,47.216,-1.4941864013671875,-0.8748321533203125,-0.9612274169921875,-0.8152191373681968,0.6031797463798138,Hook
763,47.266,-1.5314483642578125,-0.963592529296875,-1.3589324951171875,-0.8279598594302525,0.5635902106353582,None
764,47.316,-1.4686737060546875,-1.207305908203125,-1.3071136474609375,-0.7431795533765155,0.518168952780243,None
765,47.365,-1.56829833984375,-1.2219085693359375,-1.2126007080078125,-0.49360631284515594,0.3709509630579306,None
766,47.415,-0.219818115234375,-0.565643310546875,0.335693359375,0.5103618670389101,0.31696252746168346,None
767,47.465,0.653076171875,0.2741546630859375,-0.0934295654296875,0.5224051457017322,0.1604252747948159,None
768,47.515,1.6244049072265625,1.1069183349609375,-0.1744842529296875,0.5563425106878981,0.1376648931706501,None
769,47.565,1.150543212890625,0.1346893310546875,0.880157470703125,0.6556652952129185,0.34903593888405876,None
770,47.615,0.1900177001953125,-1.891143798828125,-0.32080078125,0.6251740937197732,0.5469188518008101,None
771,47.674,0.7115631103515625,-2.150390625,-0.5346527099609375,0.6894672030427809,0.5798471147728522,None
772,47.724,1.350616455078125,-0.5018157958984375,0.230682373046875,0.7404238930369906,0.5368402912430494,None
773,47.774,0.9648284912109375,0.1316986083984375,-0.13226318359375,0.7031043154464314,0.5542784578955545,None
774,47.824,0.596160888671875,0.065673828125,0.0146636962890625,0.664097064110776,0.608051291677803,None
775,47.874,0.4190673828125,-0.1559906005859375,0.2137908935546875,0.6008039550486699,0.6870973474397916,None
776,47.924,0.3515472412109375,-0.1914520263671875,-0.065765380859375,0.46358545534477225,0.7709058090762785,None
777,47.973,0.13970947265625,-0.7259979248046875,-0.13665771484375,-0.1849856122919017,-0.1858228070429177,None
778,48.023,0.2112579345703125,-1.33343505859375,-0.42254638671875,-0.3085087675591334,-0.05387016006741821,None
779,48.462,-2.4024200439453125,-0.239410400390625,-1.1112823486328125,-0.39815082431082416,-0.03772934774963424,None
780,48.512,-1.26629638671875,-0.8768310546875,-1.0697021484375,-0.35478784210979475,-0.004525913707001054,Hook
781,48.562,-1.4534912109375,-1.4805450439453125,-0.4211883544921875,-0.25453289360096,0.012027284128579677,None
782,48.611,-1.5018463134765625,-1.48931884765625,-0.4473419189453125,-0.19304955236713123,-0.06958573235452506,None
783,48.661,-0.7217864990234375,-0.9911956787109375,-0.16534423828125,-0.0800763448160121,-0.1966500060323987,None
784,48.711,0.2456207275390625,-0.4594573974609375,-0.122589111328125,-0.2577944616675054,-0.45891682551299184,None
785,48.761,0.560150146484375,-0.177947998046875,-0.2079010009765625,-0.15270825366867027,-0.5214874350632698,None
786,48.811,0.898193359375,0.1510162353515625,0.6093597412109375,-0.08259570128469033,-0.4957931375095351,None
787,48.861,0.5179901123046875,-0.1781005859375,0.640899658203125,-0.09401793147388511,-0.3847588598947973,None
788,48.911,0.3380584716796875,-1.1063995361328125,0.2075347900390625,-0.1431901678973692,-0.2259356648675514,None
789,49.01,0.506317138671875,-2.0505828857421875,-0.0398712158203125,-0.1277911004312154,-0.22202666429912765,None
790,49.06,0.87298583984375,-0.78094482421875,0.0539398193359375,-0.15812943182915773,-0.26050242485754915,None
791,49.11,0.7937774658203125,-0.0462188720703125,0.121612548828125,-0.1383527270237714,-0.2547092494209356,None
792,49.16,0.5128021240234375,0.0346221923828125,-0.0383148193359375,-0.15712692658113891,-0.21013507499329953,None
793,49.21,0.432769775390625,0.019439697265625,-0.3225555419921875,-0.2220408180126284,-0.13378493665104757,None
794,49.259,0.3692169189453125,-0.238983154296875,-0.2823638916015625,-0.3044364043370151,-0.02818849380933631,None
795,49.309,0.2429351806640625,-0.48236083984375,0.09014892578125,0.1837102503784042,-0.4436727789518866,None
796,49.359,0.1889801025390625,-1.2306671142578125,0.0467987060546875,-0.04122816552203303,-0.32824988390555443,None
797,49.661,-3.5255889892578125,6.7452392578125,-8.900283813476562,-0.09741511440154249,-0.07350240723111112,None
798,49.791,-2.4396820068359375,0.292938232421875,-0.30316162109375,-0.18499324122184363,-0.17459410821369634,None
799,49.841,-0.9529266357421875,-0.5996551513671875,-1.20892333984375,-0.17529373175589474,-0.2155119292106318,Hook
800,49.891,-0.8354339599609375,-1.1188201904296875,-0.7856903076171875,-0.19324269978217098,-0.2674100820690416,None
801,49.941,-0.778076171875,-0.93243408203125,-1.0925750732421875,-0.2297170888891842,-0.3673731411431035,None
802,49.991,-0.47601318359375,-0.646820068359375,-0.7054290771484375,-0.7370621451045802,0.4453206495186461,None
803,50.041,-0.43035888671875,-0.6171112060546875,-0.9306488037109375,-0.6506014138144134,0.3551102051510368,None
804,50.09,-0.3462066650390625,-1.0026092529296875,-0.658111572265625,-0.5547307196840358,0.2614571499707472,None
805,50.14,-0.21368408203125,-1.14215087890625,-1.692413330078125,-0.29985703505896216,0.08011826932472801,None
806,50.19,0.91009521484375,-0.09027099609375,-0.3521575927734375,-0.021044736809787298,-0.10393505612063596,None
807,50.266,2.0515289306640625,0.53399658203125,1.5167694091796875,0.11981070623867109,-0.07156920317534879,None
808,50.316,0.58740234375,-1.1287384033203125,-0.2397613525390625,0.08995348623583328,0.14320775865680077,None
809,50.376,0.414947509765625,-1.96514892578125,-0.605682373046875,0.16376132724607342,0.2904063831726427,None
810,50.426,1.2109222412109375,-0.38238525390625,0.0103759765625,0.2827792793084652,0.3101386829053457,None
811,50.476,1.10723876953125,0.232208251953125,0.3580169677734375,0.4250427803835947,0.3506770194659199,None
812,50.525,0.6642303466796875,-0.031463623046875,-0.03369140625,0.4869029346544275,0.44539706193445944,None
813,50.575,0.258758544921875,-0.38360595703125,0.2355499267578125,0.5232669200375095,-0.4983565454964082,None
814,50.625,0.4614105224609375,-0.0772857666015625,0.422760009765625,0.4408922305962041,-0.40274805831672117,None
815,50.675,0.1153106689453125,-0.4728546142578125,0.5374298095703125,0.7507714459354762,-0.15903500337591137,None
816,50.725,0.5361480712890625,-1.36077880859375,-0.06951904296875,0.5170733664372138,-0.005649681818731184,None
817,51.153,-2.0631256103515625,-0.2086944580078125,-0.771331787109375,0.3982192938675612,-0.13662080670140267,None
818,51.273,-0.362457275390625,-1.1216888427734375,-2.0428466796875,0.5389373807145585,-0.27725853895882585,Hook
819,51.323,0.344085693359375,-0.0143890380859375,0.4225006103515625,0.934804517547045,-0.4862807660833635,None
820,51.373,0.6311187744140625,0.22418212890625,0.9622802734375,0.986188963909125,-0.6612046515113806,None
821,51.422,0.70050048828125,0.540924072265625,0.1834716796875,0.9577962023563612,-0.7445004378107953,None
822,51.472,0.6849822998046875,0.300689697265625,-0.465118408203125,0.9502120673381196,-0.7587573356718887,None
823,51.522,0.49981689453125,-0.161834716796875,0.3415069580078125,0.8824099973189445,-0.7221438464619447,None
824,51.572,1.05792236328125,-0.36126708984375,0.4150390625,0.8105456704473971,-0.6687676088007166,None
825,51.622,1.229461669921875,-0.803680419921875,0.189239501953125,0.8073681653063094,-0.5695674182939415,None
826,51.672,1.455413818359375,-0.9942474365234375,0.316497802734375,0.7639435155682998,-0.47012302981945747,None
827,51.722,1.1598052978515625,-0.7047271728515625,0.3180084228515625,0.729263909622422,-0.36615602354972887,None
828,51.771,1.14166259765625,-0.391143798828125,0.0489349365234375,0.7330526677897525,-0.27687201571180725,None
829,51.821,0.7701873779296875,-0.5350494384765625,0.09075927734375,0.16723886469350346,-0.8174522074179413,None
830,51.871,0.603240966796875,-0.61883544921875,0.019256591796875,0.031102412666483666,-0.6978535926219679,None
831,51.921,0.7631072998046875,-0.5536346435546875,-0.1270751953125,-0.22371165408326624,-0.8021640525091368,None
832,51.971,0.9726715087890625,-0.650848388671875,0.1822509765625,-0.24764943738099235,-0.8156751075245672,None
833,52.021,1.0656890869140625,-0.6339111328125,0.110443115234375,-0.32819643938113435,-0.8504343312665666,None
834,52.07,1.058074951171875,-0.73675537109375,0.1757965087890625,-0.40512269798991885,-0.8930964763330947,None
835,52.12,0.9149932861328125,-0.7011871337890625,0.174957275390625,-0.49247562275762097,-0.9354736899654464,None
836,52.17,0.9769439697265625,-0.7128753662109375,0.0718994140625,-0.6026362433321165,-0.9729365457466859,None
837,52.22,0.5928802490234375,-0.779541015625,0.1361846923828125,0.17209220463349162,-0.5995920369499308,None
838,52.27,0.52734375,-0.68536376953125,0.3769378662109375,0.48190676783009184,-0.5590155796739664,None
839,52.32,0.4106903076171875,-0.5695648193359375,0.4766693115234375,0.6417976013543336,-0.4839076589756809,None
840,52.369,0.4610137939453125,-0.39483642578125,0.4297332763671875,0.7363732889744277,-0.6198862573713635,None
841,52.419,0.0977325439453125,-0.3978118896484375,0.2723236083984375,0.56487679258875,-0.1986835647811468,None
842,52.469,0.2144775390625,-0.29937744140625,0.3387908935546875,0.7493501160462094,-0.42860655975218226,None
843,52.519,0.1701202392578125,-0.59747314453125,0.310638427734375,0.4612970864338543,-0.2449329733340233,None
844,52.569,0.2559814453125,-1.0450592041015625,0.2733001708984375,0.40889850767907343,-0.14572891854472086,None
845,52.619,0.26849365234375,-1.523223876953125,0.2599029541015625,0.4093786754710275,-0.011025055555096565,None
846,52.669,0.4671630859375,-1.805328369140625,0.281707763671875,0.4473188147468724,0.1251129641435528,None
847,52.808,0.1945037841796875,-1.9888153076171875,-0.1844482421875,0.550538242242995,0.1221848138298401,None
848,52.858,0.5306396484375,-0.9566192626953125,-0.42022705078125,0.6401615718550665,0.09034324427105317,None
849,52.908,0.4898223876953125,-0.4509124755859375,-0.2334442138671875,-0.45975480422534165,-0.6942813711747088,None
850,52.958,0.6201629638671875,-0.1838836669921875,-0.1077423095703125,-0.29649521850229715,-0.6893115479475834,None
851,53.007,0.6980743408203125,0.03497314453125,0.1768951416015625,-0.1457504989781518,-0.6713118284665509,None
852,53.057,0.658172607421875,-0.0384063720703125,0.1979827880859375,-0.09894457470486524,-0.631839892715874,None
853,53.107,0.5571746826171875,-0.5486907958984375,0.234222412109375,0.3926008166716062,-0.6825510980025293,None
854,53.157,0.2983245849609375,-1.2982330322265625,0.7668304443359375,0.4326456412177955,-0.6268249782220435,None
855,53.207,0.555023193359375,-0.7447509765625,0.4835052490234375,0.5445267919437582,-0.5300420940371819,None
856,53.257,0.45294189453125,-0.30230712890625,0.786834716796875,0.5859754506265134,-0.5053368878799622,None
857,53.306,0.1310882568359375,-0.1206817626953125,0.89324951171875,0.6247297602357725,-0.42713464042987076,None
858,53.356,-0.166259765625,-0.12945556640625,0.2451934814453125,0.6027394501439384,-0.2900472317459981,None
859,53.406,-0.664794921875,-0.544677734375,0.044586181640625,0.08158502849534988,0.7724879613825834,None
860,53.456,-0.6215057373046875,-0.964324951171875,0.011322021484375,0.059830416463768236,0.8936520670394538,None
861,53.506,-0.49249267578125,-1.6551055908203125,0.0742034912109375,0.03177960952980359,0.96800364799864,None
862,53.663,1.4202728271484375,-4.2332763671875,0.9097137451171875,0.4056046186747536,0.9364237865101953,None
863,54.078,-2.0253753662109375,0.2218170166015625,1.3992919921875,0.2754795726765021,0.9496492978299914,Hook
864,54.128,-1.744781494140625,-0.054443359375,0.3321075439453125,0.1831017091688289,0.9704281913395697,None
865,54.177,-1.2619781494140625,-0.5443267822265625,0.3488616943359375,0.0731714582033174,0.9851604018343194,None
866,54.227,-0.6760711669921875,-0.9128570556640625,-0.3397369384765625,-0.0035833723075576,0.9915722200262725,None
867,54.277,0.178863525390625,-0.6887054443359375,-0.5137481689453125,-0.5979265830763395,-0.20380154629106992,None
868,54.327,0.713775634765625,-0.0959930419921875,-0.1954498291015625,-0.6489456951227369,-0.19376073857089698,None
869,54.377,1.1726837158203125,0.3778533935546875,0.1080474853515625,-0.6495554006814143,-0.13781639277674432,None
870,54.427,1.144622802734375,0.154693603515625,0.3304290771484375,-0.6501646888204128,-0.08142851266134116,None
871,54.476,0.5514678955078125,-0.7870635986328125,0.7819366455078125,-0.6213869319779426,0.04296216310396252,None
872,54.526,0.5384063720703125,-1.039215087890625,1.07122802734375,-0.6672815104481761,0.10846899633064665,None
873,54.576,0.8779449462890625,-0.5354156494140625,1.341156005859375,-0.8208422142288315,0.12868889711796874,None
874,54.626,1.168121337890625,-0.2187957763671875,0.4198150634765625,-0.9581294349866175,0.18627089863843752,None
875,54.676,0.8861083984375,-0.82318115234375,-0.5979766845703125,-0.9785942702642716,0.25787486627026435,None
876,54.726,0.4105224609375,-1.0414581298828125,-0.15704345703125,-0.9997530331268094,0.2922628743962537,None
877,54.776,0.6247406005859375,-0.70819091796875,-0.5719757080078125,-0.9885874182203607,0.2902100400533479,None
878,54.825,0.4525299072265625,-0.7381439208984375,-0.5558929443359375,-0.6015814221993359,-0.43981466388534246,None
879,54.875,0.51446533203125,-0.7121734619140625,-0.4340667724609375,-0.5204454232485795,-0.524997538845402,None
880,54.925,0.7305908203125,-0.6591339111328125,-0.5300750732421875,-0.5573616875695944,-0.5448322263727189,None
881,54.975,0.8351287841796875,-0.6698760986328125,-0.3480224609375,-0.5472011934036987,-0.5462156534145716,None
882,55.025,0.7938690185546875,-0.678558349609375,-0.1898040771484375,-0.2693768899891253,-0.7479036664901102,None
883,55.075,0.5284576416015625,-0.6368560791015625,-0.270843505859375,-0.3913605303834867,-0.6068978719469751,None
884,55.124,0.3364410400390625,-0.5194549560546875,-0.3950042724609375,-0.6052954882795201,-0.45823965484174567,None
885,55.174,0.25799560546875,-0.54541015625,-0.4425506591796875,-0.6300821366819848,-0.34479651713367343,None
886,55.224,-0.0067901611328125,-0.98516845703125,-0.2379913330078125,-0.23481958727770116,0.006699517296037101,None
887,55.274,-0.1185150146484375,-1.3347015380859375,-0.1346893310546875,-0.16083239499397065,0.04050596761965895,None
888,55.324,0.002227783203125,-1.34442138671875,0.4430999755859375,-0.13916806334959383,0.04552507268908359,None
889,55.374,0.0477752685546875,-1.13092041015625,0.40423583984375,-0.12917583522010426,0.02962036317400679,None
890,55.423,0.0062255859375,-0.80792236328125,0.3001251220703125,0.3482269800500287,-0.007223188846770231,None
891,55.473,0.162506103515625,-0.51910400390625,0.6417999267578125,0.7775104074322525,-0.19316089117307228,None
892,55.523,0.056304931640625,-0.789276123046875,0.3570404052734375,0.4121553367746825,-0.06485964693421685,None
893,55.573,-0.232025146484375,-1.2698516845703125,0.15380859375,0.478386380606287,-0.10197421214968692,None
894,55.623,-0.270599365234375,-1.2132720947265625,0.6665496826171875,0.589616059401154,-0.1655815805984039,None
895,55.673,0.076995849609375,-0.845855712890625,1.269439697265625,0.6420205928639813,-0.19215329230368172,None
896,55.723,0.0678863525390625,-0.787750244140625,0.89959716796875,0.6615355100145333,-0.15661664523512855,None
897,55.772,0.1595458984375,-0.603546142578125,0.691802978515625,0.7535375244540735,-0.17121712174015738,None
898,55.822,0.0426177978515625,-0.466949462890625,0.45166015625,0.6952414286734556,-0.06546095892144706,None
899,55.872,0.0947723388671875,-0.263763427734375,-0.2000885009765625,-0.6043713500020103,-0.275207702617859,None
900,55.922,-0.0012664794921875,-0.24444580078125,0.0857391357421875,0.3309800570039149,0.004888951133916378,None
901,55.972,-0.1201629638671875,-0.25079345703125,0.0582275390625,0.2261578246791373,0.4229230741905009,None
902,56.022,-0.6164093017578125,-0.75408935546875,-0.04803466796875,-0.06357006849423076,0.6321170905369529,None
903,56.071,-0.3557281494140625,-2.06610107421875,1.1915130615234375,-0.09788270402941018,0.7523570249772998,None
904,56.726,-2.02386474609375,0.3921356201171875,0.2032928466796875,-0.30980331902312674,0.7617105817986264,Hook
905,56.775,-1.267547607421875,-0.05364990234375,0.3368682861328125,-0.4543807151015402,0.7836458788734698,None
906,56.825,-0.791839599609375,-0.4145660400390625,-0.185516357421875,-0.6070184471543757,0.7989383641214798,None
907,56.875,-0.1798095703125,-0.3699951171875,-0.650543212890625,-0.6343914554442498,0.8145353812996418,None
908,56.925,0.255615234375,-0.36767578125,-0.492431640625,-0.8012853006676779,-0.38404156375620935,None
909,56.975,0.7792510986328125,-0.2469635009765625,0.251556396484375,-0.7497941427482064,-0.2515924094948412,None
910,57.025,0.50933837890625,-0.558074951171875,0.5132598876953125,0.676935755847706,-0.557625917837551,None
911,57.074,0.332855224609375,-1.09527587890625,0.159912109375,0.6729717462158161,-0.42565128045119277,None
912,57.124,0.367523193359375,-1.499664306640625,0.590301513671875,0.7081187858699555,-0.3601823110151918,None
913,57.174,0.599395751953125,-1.2578277587890625,0.36737060546875,0.6988049470696707,-0.33605016130549453,None
914,57.224,0.8645782470703125,-1.3102569580078125,0.0956573486328125,0.6992586801737053,-0.31796412133940105,None
915,57.274,1.1227874755859375,-1.3025360107421875,0.0370941162109375,0.7170924868894524,-0.3070323273101092,None
916,57.324,0.729736328125,-1.1459503173828125,0.304718017578125,0.7348820735049971,-0.3243493377354294,None
917,57.373,0.733062744140625,-0.3925933837890625,0.1067047119140625,0.7138070105857137,-0.3872469209704364,None
918,57.423,0.8742523193359375,0.2007293701171875,0.00299072265625,0.7620831380249108,-0.42012609916469695,None
919,57.473,0.7823944091796875,0.1371307373046875,0.3628997802734375,0.8151077362865617,-0.3908730827701391,None
920,57.523,0.665008544921875,-0.3134613037109375,0.2167816162109375,0.8186756974114853,-0.31799348305985503,None
921,57.573,0.7917633056640625,-0.9459991455078125,0.00018310546875,0.8127006072311279,-0.24371188777404512,None
922,57.623,0.905914306640625,-1.0746917724609375,-0.2097930908203125,0.7949262617464674,-0.20706349454932818,None
923,57.673,1.072967529296875,-0.7272796630859375,-0.0054779052734375,0.8101108647127871,-0.21429057318706107,None
924,57.722,0.9108123779296875,-0.354949951171875,0.441680908203125,0.813476121949979,-0.21897492089519188,None
925,57.772,0.661163330078125,-0.1662445068359375,0.4644012451171875,0.7878413240893103,-0.20934316238091144,None
926,57.822,0.207366943359375,-0.340087890625,0.28802490234375,0.6462798375457672,-0.4218653294450567,None
927,57.872,-0.01824951171875,-0.6360321044921875,0.2650604248046875,0.3846735625209252,0.026475637986204135,None
928,57.922,-0.114959716796875,-0.9262237548828125,0.362213134765625,0.3642055444994679,0.11482748093022749,None
929,57.972,-0.355316162109375,-1.5121307373046875,0.6463775634765625,0.35206940726500785,0.17663644069314074,None
930,58.031,-0.570892333984375,-1.96783447265625,0.782989501953125,0.29874503203375274,0.20165923537975158,None
931,58.081,-0.171295166015625,-1.280853271484375,0.6817474365234375,0.32369199310168556,0.1737695806648683,None
932,58.131,0.0041351318359375,-0.79522705078125,0.8660736083984375,0.41992998225009714,0.16201273481241504,None
933,58.181,0.0029144287109375,-0.6149444580078125,0.511993408203125,0.6398448445112689,-0.003642175439938955,None
934,58.231,-0.0002593994140625,-0.5588531494140625,0.407958984375,0.5896079066964435,0.0003749002733934997,None
935,58.281,0.3935546875,-0.696624755859375,0.21673583984375,0.2970767229052033,-0.4747671392090739,None
936,58.33,0.5419769287109375,-0.938507080078125,0.144287109375,0.1519557488331182,-0.4957156808321856,None
937,58.38,0.769866943359375,-0.7031707763671875,0.174285888671875,0.24057754416350416,-0.7282626793616139,None
938,58.43,0.6687774658203125,-0.2954864501953125,0.1487274169921875,0.16593510931654074,-0.6695455816321106,None
939,58.48,0.4757232666015625,-0.16162109375,-0.1639404296875,0.0594707787168553,-0.5936306733724351,None
940,58.53,0.205047607421875,-0.535552978515625,0.2173309326171875,0.37602436197624184,-0.33435387454164706,None
941,58.58,0.11212158203125,-0.655303955078125,0.017822265625,0.02718689214316693,-0.16858727057328976,None
942,58.629,-0.1169891357421875,-1.3743438720703125,-0.2787628173828125,-0.29005938264823766,-0.03951397101820779,None
943,59.108,-1.927154541015625,-0.8685150146484375,-0.9244537353515625,-0.3244126727266755,-0.006588075226036869,Hook
944,59.158,-1.58978271484375,-0.923980712890625,-1.8973388671875,-0.3628846117990203,-0.038401216909780246,None
945,59.208,-1.621429443359375,-1.4618682861328125,-2.0503387451171875,-0.20373426398585986,-0.06355722269245546,None
946,59.257,-1.1663818359375,-1.1660919189453125,-0.33160400390625,0.16696264006564132,-0.1505994539293822,None
947,59.307,-0.0238800048828125,-0.3795318603515625,0.7094573974609375,0.4917854956614877,-0.3102550967660286,None
948,59.357,0.583343505859375,0.23590087890625,0.0967559814453125,0.47880048661155616,-0.44250910598570664,None
949,59.407,0.9570770263671875,0.57525634765625,0.8926544189453125,0.49719481806436255,-0.5299808039445324,None
950,59.457,0.5930633544921875,0.29632568359375,0.5024871826171875,0.48229558259573063,-0.5098237926751678,None
951,59.507,0.1490631103515625,-0.5023193359375,0.108734130859375,0.21156429088005674,-0.2785532377196409,None
952,59.557,0.1661224365234375,-1.1531829833984375,0.074798583984375,0.2807046896297845,-0.1355941270707805,None
953,59.606,0.32403564453125,-1.4502716064453125,0.466033935546875,0.3413853014294137,-0.020436366835620973,None
954,59.656,0.82696533203125,-1.1377410888671875,0.536895751953125,0.3541101111529799,0.028477432684560107,None
955,59.706,1.026519775390625,-0.9066619873046875,0.483428955078125,0.3175515135973915,0.07261228029681573,None
956,59.756,0.7629547119140625,-0.73779296875,0.3860626220703125,0.31327622385854137,0.10752755641683077,None
957,59.806,0.6323089599609375,-0.46044921875,0.2737579345703125,0.5110441100903834,-0.762997650095215,None
958,59.856,0.302581787109375,-0.343658447265625,0.002716064453125,0.007903136533688274,-0.6608160734917331,None
959,59.905,0.068695068359375,-0.243377685546875,0.1107635498046875,0.41422853496264594,-0.248822876626021,None
960,59.955,0.028289794921875,-0.18365478515625,0.1980743408203125,0.7332942725443214,-0.10416240362015809,None
961,60.005,-0.128662109375,-0.900787353515625,-0.5926361083984375,-0.5496248185386367,0.11848377776244004,None
962,60.434,-2.52679443359375,0.3120269775390625,0.0855712890625,-0.5543625305094035,-0.015169291973931269,None
963,60.484,-1.0416412353515625,-0.5264739990234375,-0.5677032470703125,-0.5694265565802995,-0.054925771477048344,Hook
964,60.533,-0.516143798828125,-0.89508056640625,-0.6917266845703125,-0.6021436679357614,-0.09417723624496,None
965,60.583,-0.7494964599609375,-1.302947998046875,-0.6745452880859375,-0.6031007315393764,-0.13837598992510525,None
966,60.633,-0.06207275390625,-0.6615753173828125,-0.81243896484375,-0.7754275067748637,0.05914126739120245,None
967,60.683,-0.0378570556640625,-0.837799072265625,-0.5904998779296875,-0.5761050114726418,0.03690903225907668,None
968,60.733,0.1811065673828125,-0.65972900390625,-0.3525238037109375,-0.471283710295891,-0.23531945897009476,None
969,60.783,0.301727294921875,-0.7346649169921875,-0.3085174560546875,-0.38718788156332895,-0.354127596880734,None
970,60.832,0.388458251953125,-0.693450927734375,-0.449462890625,-0.5438988252619625,-0.42541791813406005,None
971,60.882,0.5169525146484375,-0.8276824951171875,0.084716796875,0.10182224588261275,-0.5277567376470237,None
972,60.932,0.393096923828125,-0.8642730712890625,-0.24224853515625,-0.2698903369040279,-0.40116578553316895,None
973,60.982,0.5269622802734375,-0.9180755615234375,-0.294830322265625,-0.3057597109714705,-0.47955686683725696,None
974,61.032,0.381134033203125,-0.992523193359375,-0.6745147705078125,-0.3456758380252262,-0.48412123263887824,None
975,61.082,0.5197296142578125,-0.880218505859375,-0.6184539794921875,-0.3810592729911097,-0.5086523837825071,None
976,61.131,0.5141448974609375,-0.883270263671875,-0.490692138671875,-0.4041517848736944,-0.5349875849635682,None
977,61.181,0.547515869140625,-0.645416259765625,-0.4163818359375,-0.5421123896545263,-0.5804603652965032,None
978,61.231,0.480743408203125,-0.734649658203125,-0.3721160888671875,-0.4518619761549545,-0.5041514276964121,None
979,61.281,0.4014739990234375,-0.602325439453125,-0.496307373046875,-0.6359169293599508,-0.4574334821561405,None
980,61.331,0.166259765625,-0.633544921875,-0.5310211181640625,-0.6423713912916792,-0.19717455318531713,None
981,61.381,0.09088134765625,-0.5691986083984375,-0.51751708984375,-0.6727182064201149,-0.11732043140767756,None
982,61.431,-0.01446533203125,-0.60211181640625,-0.7982940673828125,-0.7983690946600966,0.014465177954018756,None
983,61.48,0.2134246826171875,-0.8457183837890625,-1.04840087890625,-0.7200951681824683,-0.01048726561870421,None
984,61.53,0.18377685546875,-1.6124267578125,-1.029632568359375,-0.5747813782629944,-0.016777776223145614,None
985,61.58,0.3562469482421875,-1.53277587890625,-0.32342529296875,-0.39774729126171177,-0.06530788027719929,None
986,61.63,0.48382568359375,-1.06103515625,0.2593841552734375,-0.2552504708840902,-0.13991947524321346,None
987,61.68,0.4720458984375,-0.4637451171875,0.47119140625,0.7127159188946329,-0.5810887456593377,None
988,61.73,0.5895233154296875,-0.263214111328125,0.7693328857421875,0.7874436482743044,-0.6307139306883127,None
989,61.779,0.465667724609375,-0.493743896484375,0.7256927490234375,0.7763299014637941,-0.6490995880051502,None
990,61.829,0.121826171875,-0.63409423828125,0.1013946533203125,0.15789875152076893,-0.18639145342653704,None
991,61.879,-0.064849853515625,-0.754425048828125,0.13507080078125,0.17623575849592293,0.08431258959732472,None
992,61.929,0.032501220703125,-0.7451019287109375,0.280914306640625,0.3527755662563937,-0.04078146924984925,None
993,61.979,0.226165771484375,-0.905242919921875,0.1948699951171875,0.21044729249587021,-0.23727003719666226,None
994,62.029,-0.008758544921875,-1.302886962890625,-0.0769195556640625,0.18451874130357124,-0.13986293332913977,None
995,62.078,-0.08087158203125,-1.325042724609375,-0.029937744140625,0.12474595503437176,-0.037264970283323366,None
996,62.128,0.0850982666015625,-0.742034912109375,-0.2026519775390625,-0.2634547707499336,-0.10995990761301525,None
997,62.178,0.0840911865234375,-0.5748138427734375,0.2436065673828125,0.3902052258092401,-0.13349044454001835,None
998,62.228,0.0969390869140625,-0.6458740234375,-0.084259033203125,-0.12936121715240287,-0.14720726253182576,None
999,62.278,0.0583038330078125,-1.29388427734375,-1.0739593505859375,-0.21645873197478382,-0.12483242670145822,None
1000,62.358,0.67108154296875,-1.9921722412109375,-0.887237548828125,-0.2528619262073966,-0.08365055251708733,None
1001,62.407,1.4325714111328125,-2.126495361328125,0.0665130615234375,-0.32635800411517074,-0.0076909490807655955,None
1002,62.756,-2.119598388671875,-0.2314453125,-0.468536376953125,-0.3868858026574717,-0.05664641801531591,Hook
1003,62.806,-1.540985107421875,-0.981597900390625,-1.4321746826171875,-0.3791278051132819,-0.06409011713263672,None
1004,62.856,-1.1844024658203125,-1.1447296142578125,-0.5482330322265625,-0.3599202013791625,-0.10044366914317777,None
1005,62.906,-1.15899658203125,-0.9251251220703125,-0.4324493408203125,-0.3532586644070236,-0.23387839362834792,None
1006,62.956,-0.8439483642578125,-0.5686187744140625,-0.8445281982421875,-0.3401115007063641,-0.3752206526774891,None
1007,63.006,-0.32391357421875,-0.5163116455078125,-0.740631103515625,-0.820338820969574,0.33769734512804134,None
1008,63.055,0.47882080078125,-0.5195465087890625,-0.862091064453125,-0.8082412217297936,0.2383167760442288,None
1009,63.105,0.879608154296875,-0.724151611328125,-0.2328643798828125,-0.779744647276235,0.21452193680400183,None
1010,63.155,0.597686767578125,-0.94464111328125,-0.240325927734375,-0.745492098575908,0.228387639370197,None
1011,63.205,0.3625640869140625,-1.0760955810546875,-0.0025482177734375,-0.7380947499954876,0.2656890150417495,None
1012,63.255,0.2485198974609375,-1.2294464111328125,-0.2496795654296875,-0.7487045012610808,0.2753464293960452,None
1013,63.305,0.2073822021484375,-1.1436309814453125,-0.6502227783203125,-0.7224779199011149,0.26285514770356805,None
1014,63.354,0.4910430908203125,-1.2562713623046875,-0.53564453125,-0.6805911615785489,0.25081748798454945,None
1015,63.404,0.31866455078125,-1.392608642578125,-0.897918701171875,-0.5826746683840017,0.2234613337961541,None
1016,63.454,0.5555419921875,-0.8044891357421875,-0.0982666015625,-0.12124667234718885,-0.5653845045259726,None
1017,63.504,1.084991455078125,-0.18695068359375,0.3567962646484375,-0.021174366666947424,-0.6256158246776271,None
1018,63.554,1.1477203369140625,-0.3414764404296875,0.3259124755859375,0.06722990340603344,-0.6498294290824085,None
1019,63.604,0.6215057373046875,-0.67889404296875,0.1224517822265625,0.17750521173287884,-0.6693464585282939,None
1020,63.653,0.3658447265625,-0.861114501953125,0.493316650390625,0.49708908194713924,-0.34588819164172796,None
1021,63.703,0.4857330322265625,-0.48199462890625,0.1406707763671875,0.28016337139649744,-0.6952937047845135,None
1022,63.753,0.96112060546875,-0.350860595703125,0.3909454345703125,0.29231803103760917,-0.7165634612922771,None
1023,63.803,0.8509368896484375,-0.4260711669921875,0.3406829833984375,0.2529069467951763,-0.6848326454870085,None
1024,63.853,0.48419189453125,-0.541778564453125,0.2228546142578125,0.38041309852176797,-0.6370780631907503,None
1025,63.903,0.02886962890625,-0.38775634765625,0.054443359375,0.1390422652815335,-0.07353022367557373,None
1026,63.952,0.13482666015625,-0.3193817138671875,1.0199432373046875,-0.06105386640095125,0.044187208341392885,None
1027,64.002,0.753875732421875,-0.844207763671875,0.873870849609375,-0.3167907264011071,0.21277723668806087,None
1028,64.391,-2.202178955078125,-0.4286956787109375,-0.8309478759765625,-0.327621612522793,0.1756131480676894,None
1029,64.441,-1.299346923828125,-0.9434356689453125,-0.6945953369140625,-0.2872081951452277,0.1250089120630793,Hook
1030,64.491,-0.5685882568359375,-1.179931640625,-0.6105499267578125,-0.2819487870879314,0.06820673789075067,None
1031,64.541,-0.7313232421875,-1.2204742431640625,-1.4333648681640625,-0.20597035217468174,-0.005984258934822525,None
1032,64.59,0.1447296142578125,-0.85162353515625,-0.5693206787109375,-0.5557619001534263,-0.13989347929071608,None
1033,64.64,0.6492767333984375,-0.473602294921875,0.1290740966796875,0.2629464351878737,-0.797683294498639,None
1034,64.69,1.091400146484375,-0.289276123046875,0.681396484375,0.4262793068890302,-0.8467839710366116,None
1035,64.74,0.99072265625,-0.2245330810546875,0.2195892333984375,0.5164035272790434,-0.8563363259959104,None
1036,64.79,0.93890380859375,-0.392425537109375,0.2382354736328125,0.5796431019812996,-0.8396776949332245,None
1037,64.84,0.36297607421875,-0.7557830810546875,0.143310546875,0.1862989879838503,-0.4267361641698664,None
1038,64.89,0.799072265625,-0.489288330078125,0.4078521728515625,0.3223332126398774,-0.37283367645927146,None
1039,64.939,0.7704620361328125,-0.5005340576171875,0.5603485107421875,0.4228117482471153,-0.32178601997086254,None
1040,64.989,0.9066314697265625,-0.5921783447265625,0.7368621826171875,0.4743681557352126,-0.2697671462730038,None
1041,65.039,0.9062957763671875,-0.79248046875,0.3313140869140625,0.46084666319350354,-0.18484731580690222,None
1042,65.089,0.5975189208984375,-0.990966796875,0.34210205078125,0.47241559980985687,-0.09403177012415193,None
1043,65.139,0.5532073974609375,-0.523529052734375,0.234405517578125,0.4086495217452129,-0.6941897422766163,None
1044,65.189,0.620513916015625,-0.13018798828125,0.151397705078125,0.37406189216390856,-0.6635012057133782,None
1045,65.238,0.50701904296875,-0.0827789306640625,0.2106170654296875,0.31528318166493474,-0.6158416015250031,None
1046,65.288,0.306549072265625,-0.3539886474609375,0.2962646484375,0.6418119082070314,-0.5532141841439798,None
1047,65.338,0.0927734375,-0.94647216796875,0.3546142578125,0.35085209615122415,-0.09140494133728243,None
1048,65.388,0.647979736328125,-1.8112640380859375,0.1800384521484375,0.17045902608290783,0.05434223244687345,None
1049,65.67,-4.76873779296875,2.2833709716796875,-5.9321746826171875,0.38352158886985854,-0.009936694000513039,None
1050,65.787,-2.38201904296875,0.4229736328125,0.1997528076171875,0.5006776344711507,-0.031077138695728375,None
1051,65.836,-1.063720703125,-0.7053680419921875,-1.206268310546875,0.4618885408934782,-0.11936906275614483,None
1052,65.886,-0.6751861572265625,-1.1082305908203125,-0.8079986572265625,0.45991676050371777,-0.1481976105915331,Hook
1053,65.936,-0.4511871337890625,-0.9758758544921875,-0.7248992919921875,0.4255003424203846,-0.2266756726217434,None
1054,65.986,-0.2790985107421875,-0.903717041015625,-0.6090087890625,0.4264057294272704,-0.30871874553451095,None
1055,66.036,-0.32183837890625,-0.8845062255859375,-0.3672637939453125,-0.3834758811042063,0.31854041725959226,None
1056,66.086,0.2185516357421875,-0.7208709716796875,-0.3837432861328125,-0.46990050986168036,-0.25852267825422587,None
1057,66.136,0.245086669921875,-0.77154541015625,-0.259552001953125,-0.3188470663492504,-0.28829396054451106,None
1058,66.185,0.36865234375,-0.81396484375,0.4360198974609375,0.4721938983795031,-0.37077992674981586,None
1059,66.235,0.3830413818359375,-0.665069580078125,-0.0462646484375,-0.06939591718392497,-0.49818003580093734,None
1060,66.285,0.51812744140625,-0.993133544921875,-0.2711181640625,-0.05324641708498237,-0.5089987386807932,None
1061,66.335,0.31451416015625,-1.5069732666015625,-0.766448974609375,0.038462602185327786,-0.47441060108389677,None
1062,66.385,0.929168701171875,-1.5414276123046875,-0.26513671875,0.2068198711103005,-0.46537245955098405,None
1063,66.435,1.2091064453125,-0.72796630859375,-0.149322509765625,0.321805887172051,-0.5060570397684838,None
1064,66.484,1.15081787109375,-0.2660369873046875,0.2998046875,0.43991929578540345,-0.573400140495426,None
1065,66.534,0.7847137451171875,-0.1370697021484375,0.248809814453125,0.5183241186782462,-0.6098112213164696,None
1066,66.584,0.68524169921875,-0.1632232666015625,0.3412322998046875,0.598706817136516,-0.6363396946576141,None
1067,66.634,0.6935577392578125,-0.2323150634765625,0.046600341796875,0.6198360165710933,-0.6263357299605464,None
1068,66.684,0.4509735107421875,-0.2505645751953125,0.2037353515625,0.638229392442393,-0.588647723011378,None
1069,66.734,0.432373046875,-0.1744537353515625,0.3291015625,0.6074873516234336,-0.5158667396601911,None
1070,66.783,0.212249755859375,-0.5740966796875,0.638885498046875,0.7438150889507765,-0.2398935454618652,None
1071,66.833,0.4679412841796875,-1.321014404296875,0.2287445068359375,0.6081844639853127,-0.05705365023803883,None
1072,67.252,-2.0911407470703125,-0.7323760986328125,-0.8038787841796875,0.5710011232711939,-0.1405952490275281,None
1073,67.302,-0.6350555419921875,-0.6588134765625,-1.8746490478515625,0.5484833023900939,-0.2402462925683179,None
1074,67.352,-0.3341827392578125,-0.8272705078125,-0.8018646240234375,0.5730392396953476,-0.26911384617870054,Hook
