index,time,acc x,acc y,acc z,ori x,ori z,punch
0,0,-0.16778564453125,-0.84478759765625,-0.5726470947265625,-0.5610977125319788,-0.16222400307130846,None
1,0.05,-0.1286163330078125,-0.8522186279296875,-0.4829254150390625,-0.49301375110501433,0.13018569625093146,None
2,0.099,-0.1535491943359375,-0.87335205078125,-0.5303497314453125,-0.5190498363371455,0.1486089231607257,None
3,0.149,-0.1477813720703125,-0.9275970458984375,-0.3296051025390625,-0.3348228211650951,0.14845726763817246,None
4,0.199,-0.1861419677734375,-0.959136962890625,-0.4878997802734375,-0.45339657495964336,0.17044718940692408,None
5,0.249,-0.1911163330078125,-0.9237518310546875,-0.3179168701171875,-0.32542503241144943,0.1919905329633607,None
6,0.299,-0.1980438232421875,-0.999847412109375,-0.2226715087890625,-0.2173799489452037,0.18982234038613674,None
7,0.349,-0.135467529296875,-0.884674072265625,-0.528106689453125,-0.5125691770985256,0.13035994699882245,None
8,0.398,-0.1014556884765625,-0.9024658203125,-0.5370330810546875,-0.5113791240588754,0.09616146045283021,None
9,0.448,-0.01300048828125,-0.8098297119140625,-0.6749267578125,-0.6402228385431945,0.012331081253357048,None
10,0.498,0.043701171875,-0.789031982421875,-0.7603912353515625,-0.6939175268043296,-0.039849120814738744,None
11,0.548,0.0556793212890625,-0.7930755615234375,-0.5740966796875,-0.5863761875320844,-0.05677851804699412,None
12,0.598,0.0570526123046875,-0.8819580078125,-0.187286376953125,-0.20772111770117815,-0.06315129541759953,None
13,0.648,0.0639495849609375,-0.8917999267578125,-0.30853271484375,-0.3269522794750624,-0.067612334331458,None
14,0.697,0.08294677734375,-0.8437957763671875,-0.4345245361328125,-0.45782491186815827,-0.08706275465169964,None
15,0.747,0.0936126708984375,-0.8081512451171875,-0.62738037109375,-0.6132206809342194,-0.09111923498682825,None
16,0.797,0.107025146484375,-0.8057098388671875,-0.5243377685546875,-0.5454463287043412,-0.11065006525218164,None
17,0.847,0.105743408203125,-0.854827880859375,-0.3709869384765625,-0.39811469720957987,-0.1127520890473096,None
18,0.897,0.065582275390625,-0.8865814208984375,-0.439910888671875,-0.4444795711282605,-0.06611837984459751,None
19,0.947,0.186798095703125,-0.8438262939453125,-0.4501190185546875,-0.47065199824171156,-0.19169686827779434,None
20,0.997,0.14019775390625,-0.8875885009765625,-0.41192626953125,-0.42096973007721994,-0.14182735097992716,None
21,1.046,0.0576324462890625,-0.8565673828125,-0.4813232421875,-0.4898777813412816,-0.05855609754226659,None
22,1.096,0.1620025634765625,-0.794647216796875,-0.4755096435546875,-0.513480106276968,-0.17232185253917526,None
23,1.146,0.2435760498046875,-0.786041259765625,-0.3437042236328125,-0.40063408268549533,-0.27312589721305325,None
24,1.196,0.2179107666015625,-0.8423614501953125,-0.4083709716796875,-0.436233113939667,-0.2267168966931529,None
25,1.246,0.27508544921875,-0.8583831787109375,-0.3710479736328125,-0.39678074113265294,-0.2822064246848579,None
26,1.296,0.4136505126953125,-0.844512939453125,-0.37213134765625,-0.40323391372522893,-0.40901591296156925,None
27,1.345,0.371185302734375,-0.961700439453125,-0.39923095703125,-0.3652524808578814,-0.384562015364362,None
28,1.395,0.416473388671875,-1.04437255859375,-0.4167633056640625,-0.3441472733813662,-0.36280684211662084,None
29,1.445,0.412384033203125,-1.2079620361328125,-0.6491241455078125,-0.2806901347143789,-0.3453995406551299,None
30,1.495,0.546295166015625,-1.2552490234375,-0.617645263671875,-0.14216056110152867,-0.32067159545544477,None
31,1.545,0.6317138671875,-1.3920135498046875,-0.3003692626953125,0.06502094093648358,-0.30390037404368103,None
32,1.595,1.2630615234375,-1.1567230224609375,0.04278564453125,0.38513865867873953,-0.23598767872639725,None
33,1.849,1.3592987060546875,2.67901611328125,-0.938720703125,-0.01838448859409745,-0.286940646127855,Straight
34,1.899,0.0897979736328125,0.290069580078125,0.5096893310546875,0.1828943319591987,-0.22395210010852185,None
35,1.948,-0.948272705078125,-0.1251068115234375,1.431610107421875,0.16243518415361005,-0.1972373200856506,None
36,1.998,-0.4160919189453125,-0.04534912109375,0.8412017822265625,0.16948583190008815,-0.21391943168262814,None
37,2.048,-0.649871826171875,-0.2065887451171875,0.9579620361328125,0.1348589547922835,-0.250358017977596,None
38,2.098,-0.6090240478515625,-0.2221527099609375,0.79290771484375,0.07154159480965656,-0.3134198817161872,None
39,2.148,-0.96978759765625,-0.314117431640625,0.696014404296875,0.0010284495760621614,-0.41384600865729887,None
40,2.198,-1.1533355712890625,-0.35186767578125,0.72430419921875,-0.21261646185111302,-0.5648835605223417,None
41,2.247,-1.128509521484375,-0.2597198486328125,0.662353515625,-0.4378273910735212,-0.738147842841242,None
42,2.297,-0.322601318359375,-0.2430572509765625,0.6319427490234375,-0.6495997568641627,-0.8661066852530476,None
43,2.347,0.0736083984375,-0.795806884765625,0.20123291015625,0.24515031004370672,-0.08931443663035854,None
44,2.397,0.394989013671875,-1.1876373291015625,0.593353271484375,0.24405598580724217,-0.18381339300265592,None
45,2.447,0.2991790771484375,-1.1511993408203125,0.538055419921875,0.267774592436432,-0.24439586700262061,None
46,2.497,0.4714508056640625,-0.794097900390625,0.5877838134765625,0.594941999721162,-0.4306704347622082,None
47,2.547,0.523406982421875,-0.6504669189453125,0.5064849853515625,0.6143685077952604,-0.5359926913234797,None
48,2.596,0.4461212158203125,-0.777587890625,0.3322296142578125,0.3928976361131271,-0.46662652791766807,None
49,2.646,0.399993896484375,-0.826080322265625,0.196807861328125,0.23175656056237232,-0.4261196958200152,None
50,2.696,0.3770904541015625,-0.910614013671875,0.0203704833984375,0.022364457513018295,-0.3825166792501158,None
51,2.746,0.424163818359375,-0.91229248046875,0.0459136962890625,0.050264208385016974,-0.4211630698327922,None
52,2.796,0.549713134765625,-0.849090576171875,0.3048858642578125,0.33794734936714615,-0.5203380509221558,None
53,2.846,0.560272216796875,-0.8910675048828125,0.044281005859375,0.04963308628448641,-0.5318187015258856,None
54,2.895,0.6840667724609375,-0.9378814697265625,0.2168731689453125,0.07246367680693017,-0.5153919901884163,None
55,2.945,0.758331298828125,-1.0072784423828125,0.189453125,0.10225434837934892,-0.500030182828746,None
56,2.995,0.68658447265625,-1.0120086669921875,0.1429443359375,0.14464031128081525,-0.48326737320434615,None
57,3.045,0.936553955078125,-1.0947113037109375,0.0424041748046875,0.23502206434359174,-0.44183085477558026,None
58,3.095,1.5765228271484375,-1.21954345703125,0.4135894775390625,0.4189461027736447,-0.37138776012678687,None
59,3.339,1.805419921875,2.4921417236328125,-0.3029632568359375,0.23060569520854385,-0.4387314100051952,None
60,3.389,-0.9488067626953125,-0.1673126220703125,0.7878570556640625,0.3763552622000098,-0.40123858086653985,Straight
61,3.439,-0.621612548828125,0.346282958984375,0.817108154296875,0.513293647219932,-0.3630608695958244,None
62,3.489,-0.7812957763671875,0.045928955078125,0.8516998291015625,0.5889508747161588,-0.3748145632748689,None
63,3.538,-0.86187744140625,0.02532958984375,1.06817626953125,0.6597619558592341,-0.38650831760583954,None
64,3.588,-1.3964385986328125,-0.3540191650390625,0.629150390625,0.6440083725352013,-0.49657367982355904,None
65,3.638,-1.161346435546875,0.078582763671875,0.7911529541015625,0.5703364496144734,-0.6219478995123519,None
66,3.688,-0.953277587890625,-0.325286865234375,0.6940155029296875,0.4476651347865529,-0.7684992695354657,None
67,3.738,-0.33099365234375,-0.2878265380859375,0.65924072265625,0.302611576598817,-0.8759024238040924,None
68,3.788,-0.02825927734375,-0.4342498779296875,0.886444091796875,0.15152424517336055,-0.9499935961587792,None
69,3.837,0.3574371337890625,-0.5879364013671875,0.8088836669921875,0.8088990367136044,-0.33658781633943907,None
70,3.887,0.5618438720703125,-0.7105712890625,1.203704833984375,0.6898180651456944,-0.4529089816512204,None
71,3.937,0.631500244140625,-0.54193115234375,0.2196197509765625,0.3755845678620432,-0.7337498428980904,None
72,3.987,0.4668426513671875,-0.61260986328125,0.3188629150390625,0.4617012263513486,-0.5600249179164472,None
73,4.037,0.3222503662109375,-0.7974395751953125,0.1148681640625,0.14257466046432526,-0.37137305332733334,None
74,4.087,0.3011932373046875,-0.9110260009765625,-0.008819580078125,-0.009680477626655627,-0.3138854342145021,None
75,4.136,0.3624114990234375,-0.9615478515625,-0.212860107421875,-0.21613965183308154,-0.3453534365967748,None
76,4.186,0.3587493896484375,-0.97265625,-0.284576416015625,-0.28080471652896716,-0.3337030310331462,None
77,4.236,0.4531402587890625,-0.98992919921875,-0.1275482177734375,-0.12778943283226982,-0.4133891854223312,None
78,4.286,0.5911712646484375,-0.9556121826171875,-0.0125274658203125,-0.13986920355400773,-0.41884018521492516,None
79,4.336,0.60040283203125,-0.9287261962890625,-0.1104736328125,-0.15153457983584198,-0.42499927938667614,None
80,4.386,0.6246185302734375,-0.8705902099609375,-0.1643524169921875,-0.185506073446325,-0.576208672583577,None
81,4.435,0.551361083984375,-0.887664794921875,-0.132568359375,-0.14770692819263936,-0.5234414506370368,None
82,4.485,0.798370361328125,-0.966949462890625,-0.070037841796875,-0.07014038651654321,-0.4967885453002494,None
83,4.535,0.834320068359375,-1.1009521484375,-0.0159759521484375,0.02921246468219576,-0.47395210370245766,None
84,4.585,0.893798828125,-0.856170654296875,-0.0163726806640625,0.20883755566477818,-0.4007154894983993,None
85,4.635,0.957489013671875,-0.912689208984375,0.3662261962890625,0.4489166711917363,-0.34290021506153234,None
86,4.849,-3.1296234130859375,-1.742584228515625,1.326507568359375,0.5122345722792178,-0.5095108787617284,None
87,4.899,1.4986724853515625,2.1546173095703125,0.4335479736328125,0.3564930991324401,-0.5244633732050117,Straight
88,4.949,-1.0933380126953125,-0.761505126953125,1.3547821044921875,0.460811635165632,-0.4448020289394458,None
89,4.999,-1.058807373046875,0.087066650390625,0.973663330078125,0.45487951044020764,-0.4719023436779187,None
90,5.049,-0.6970672607421875,0.0074920654296875,0.6836090087890625,0.4210243343785347,-0.5140067884955204,None
91,5.098,-0.9996185302734375,-0.2493133544921875,0.822845458984375,0.4207494418229836,-0.5868809347956786,None
92,5.148,-1.0198974609375,-0.2476348876953125,0.6831207275390625,0.26787576796736745,-0.6922447263192073,None
93,5.198,-0.6692962646484375,-0.245025634765625,0.44854736328125,0.08620948797600243,-0.8102934697543042,None
94,5.248,-0.4551544189453125,-0.3615570068359375,0.3880462646484375,0.7316376357281504,0.6512388437276628,None
95,5.298,-0.30181884765625,-0.689544677734375,0.4406890869140625,0.5385165340768808,0.3460339506012143,None
96,5.348,-0.2317047119140625,-0.7849578857421875,0.269500732421875,0.3247257153643846,0.2689016579729916,None
97,5.397,-0.149139404296875,-0.9527130126953125,-0.0100555419921875,-0.010554051229763583,0.1546498790886457,None
98,5.447,-0.0076141357421875,-1.0196990966796875,0.1704864501953125,0.16490396798166543,0.0073646154539819065,None
99,5.497,0.2771148681640625,-0.8809051513671875,-0.2079010009765625,-0.22969798144434242,-0.292754482893182,None
100,5.547,0.3955230712890625,-1.0148773193359375,-0.36358642578125,-0.3033696097884304,-0.3950479858125831,None
101,5.597,0.6299896240234375,-0.77349853515625,-0.3863067626953125,-0.4468041061623982,-0.5888988555652248,None
102,5.647,0.5963592529296875,-0.949310302734375,-0.0834503173828125,-0.4426357430989098,-0.6249884061407384,None
103,5.696,0.870452880859375,-0.941009521484375,-0.067169189453125,-0.4357090412545863,-0.649830922548549,None
104,5.746,0.7925872802734375,-0.8969573974609375,-0.2396392822265625,-0.4045638948993366,-0.6617840950622248,None
105,5.796,0.6707000732421875,-0.982574462890625,-0.0787353515625,-0.3472359641928307,-0.6593949120820916,None
106,5.846,0.61492919921875,-0.88482666015625,-0.04022216796875,-0.04541078667068186,-0.5702905068984373,None
107,5.896,0.6127166748046875,-0.7314453125,-0.05084228515625,-0.06934203292574292,-0.6412388316302529,None
108,5.946,0.7297515869140625,-0.7199249267578125,-0.0737457275390625,-0.10190206874624883,-0.7100485518636805,None
109,5.995,0.7171783447265625,-0.8740234375,-0.0302734375,-0.06277394783101409,-0.6890472151443477,None
110,6.045,0.9176483154296875,-0.9601898193359375,-0.090423583984375,-0.003769442104080357,-0.6598738038480813,None
111,6.095,0.8514862060546875,-1.1793060302734375,-0.1463165283203125,0.06812118472501641,-0.6142559495016584,None
112,6.145,1.4303436279296875,-1.11944580078125,0.2777557373046875,0.17544064335486292,-0.5324673685479877,None
113,6.404,2.0289154052734375,2.34161376953125,-0.290557861328125,-0.211716752156727,-0.7182196381255367,None
114,6.454,-0.9403533935546875,-0.4265899658203125,0.956573486328125,-0.1363680189678378,-0.6444764246998729,Straight
115,6.504,-0.9946136474609375,-0.0677337646484375,0.6838836669921875,-0.09603405443224616,-0.6331874885391019,None
116,6.554,-0.949737548828125,-0.273773193359375,0.81036376953125,-0.12150090703867013,-0.6548075255367559,None
117,6.604,-1.001373291015625,-0.3221435546875,0.6496124267578125,-0.14280842115334097,-0.6954569049349206,None
118,6.653,-1.1327056884765625,-0.5115966796875,0.67730712890625,-0.19726304959598281,-0.7696099619714584,None
119,6.703,-1.085723876953125,-0.501739501953125,0.4306640625,-0.3104629182670151,-0.8575681248634973,None
120,6.753,-0.4767608642578125,-0.541748046875,0.5885009765625,0.7357271914121633,0.5119878769050286,None
121,6.803,-0.0841522216796875,-0.7065277099609375,0.6308135986328125,0.6660071253847081,0.08849852351869017,None
122,6.853,0.2086639404296875,-0.9363861083984375,0.8774871826171875,0.558610562889754,-0.06473532862984366,None
123,6.903,0.4042816162109375,-0.82421875,0.4692230224609375,0.4947400732299622,-0.3921276708106901,None
124,6.952,0.5783843994140625,-0.7682647705078125,0.287872314453125,0.35088088389188554,-0.5761904842711967,None
125,7.002,0.6343536376953125,-0.698150634765625,0.135772705078125,0.19089837079553196,-0.6656225038547058,None
126,7.052,0.5035247802734375,-0.73736572265625,-0.0068817138671875,-0.00933243025862829,-0.5639127776529483,None
127,7.102,0.461151123046875,-0.7898101806640625,0.0252532958984375,0.031957548556859096,-0.5040284654716003,None
128,7.152,0.488250732421875,-0.8166046142578125,-0.213226318359375,-0.25264268425193975,-0.5007509303366764,None
129,7.202,0.429840087890625,-0.933135986328125,-0.3664093017578125,-0.36549696384448793,-0.3940733297200836,None
130,7.251,0.4078369140625,-0.8549652099609375,-0.443511962890625,-0.4604780824301071,-0.3899222393151261,None
131,7.301,0.3925933837890625,-0.8492279052734375,-0.36492919921875,-0.3948097016718743,-0.3909371837433314,None
132,7.351,0.475250244140625,-0.825286865234375,-0.2836151123046875,-0.32500060216115634,-0.4782732211284535,None
133,7.401,0.520721435546875,-0.880126953125,-0.218902587890625,-0.2413636741080135,-0.49791798906146434,None
134,7.451,0.5562744140625,-0.8832550048828125,-0.1953887939453125,-0.21599270423201053,-0.5238189921539544,None
135,7.501,0.666534423828125,-0.93914794921875,-0.19512939453125,-0.21381634505240008,-0.5139170289502126,None
136,7.55,0.7910308837890625,-0.8861083984375,-0.3633270263671875,-0.1899196546547131,-0.5025021886098805,None
137,7.6,0.94097900390625,-0.9774017333984375,-0.2464599609375,-0.12246723392057056,-0.45838151088991635,None
138,7.65,1.1515655517578125,-0.989166259765625,0.077423095703125,0.009763201757086653,-0.3849818943053367,None
139,7.7,1.14862060546875,-0.7473297119140625,0.4961700439453125,0.23199177546263705,-0.25668535712663004,None
140,7.959,0.396484375,1.1462860107421875,-2.2570953369140625,-0.3219472878591817,-0.43737696010270755,None
141,8.009,-1.23260498046875,-0.4210052490234375,2.265533447265625,-0.07327164578517487,-0.3503323408794699,Straight
142,8.059,-1.0091705322265625,0.160186767578125,0.167266845703125,-0.19763529785221173,-0.4449166371173472,None
143,8.109,-1.1257171630859375,-0.064544677734375,0.738739013671875,-0.2438134829310502,-0.5353560509322264,None
144,8.159,-1.3243408203125,-0.2122650146484375,0.6667327880859375,-0.3056201755342729,-0.6545002386201205,None
145,8.208,-0.6751556396484375,-0.220001220703125,0.533050537109375,-0.4617998801351112,-0.8029635435440774,None
146,8.258,-0.4983062744140625,-0.5872802734375,0.6167144775390625,0.7241771313532486,0.5050316096569525,None
147,8.308,-0.1113433837890625,-0.6492767333984375,0.4096527099609375,0.5336048262597406,0.14353178237220152,None
148,8.358,0.020965576171875,-0.8005218505859375,0.271697998046875,0.3213943290081331,-0.02479277023573183,None
149,8.408,0.0207672119140625,-0.9201202392578125,0.1771392822265625,0.1890461018060996,-0.02215768597074114,None
150,8.458,0.007659912109375,-0.93243408203125,0.1371917724609375,0.1455657697069335,-0.008127194198272453,None
151,8.507,0.05810546875,-0.90399169921875,-0.1665802001953125,-0.18122073438024705,-0.06308637436743149,None
152,8.557,0.122039794921875,-0.9607086181640625,-0.1529693603515625,-0.1572447332696548,-0.1244750478862085,None
153,8.607,0.2055511474609375,-0.975494384765625,-0.1239166259765625,-0.12601689601367908,-0.20461250247748924,None
154,8.657,0.25177001953125,-1.0226898193359375,-0.398101806640625,-0.17181351400891715,-0.24373817777156714,None
155,8.707,0.36181640625,-0.99285888671875,-0.1407623291015625,-0.14037104257549352,-0.3393944205345409,None
156,8.757,0.23779296875,-0.9818115234375,-0.3724365234375,-0.3546752603312592,-0.22086060766543605,None
157,8.806,0.368804931640625,-0.936309814453125,-0.2142333984375,-0.2230421989918113,-0.35845365397907825,None
158,8.856,0.3202362060546875,-0.9302825927734375,-0.293853759765625,-0.30120622115351503,-0.31187658884910985,None
159,8.906,0.43310546875,-0.892303466796875,-0.230438232421875,-0.25004727046682085,-0.42533177304888076,None
160,8.956,0.4227752685546875,-0.9732208251953125,-0.1704559326171875,-0.17252006196827924,-0.3933937285213049,None
161,9.006,0.514129638671875,-0.9675445556640625,-0.2066802978515625,-0.17729896522401312,-0.389649623143143,None
162,9.056,0.467041015625,-1.0543975830078125,-0.2311859130859375,-0.167301506633545,-0.3672978345169891,None
163,9.105,0.506256103515625,-1.0185394287109375,-0.29620361328125,-0.14703000088570206,-0.3520416202327858,None
164,9.155,0.544891357421875,-0.9392547607421875,-0.3734283447265625,-0.12153598585816709,-0.3274884924167344,None
165,9.205,0.48748779296875,-1.0753936767578125,-0.0006866455078125,-0.04906511730275429,-0.2682798597048276,None
166,9.255,0.8423614501953125,-0.8271484375,0.201873779296875,0.1511791145067115,-0.20016993459811677,None
167,9.524,1.6486358642578125,2.39990234375,-2.2523040771484375,0.0292413798749681,-0.13528989078677556,None
168,9.584,-1.62213134765625,-1.02301025390625,2.214599609375,0.048281914766334755,-0.14833593863518976,Straight
169,9.634,-0.9295654296875,0.1434326171875,0.1094970703125,-0.15509257942794133,-0.3106804412382669,None
170,9.684,-0.7928924560546875,-0.203033447265625,0.5384979248046875,-0.23486473481105816,-0.45122683104548994,None
171,9.733,-0.913238525390625,-0.3691864013671875,0.33563232421875,-0.3160719770842097,-0.5773776105014191,None
172,9.783,-0.5741729736328125,-0.6868743896484375,0.5137481689453125,0.5989492004455361,0.5562688313810933,None
173,9.833,-0.244537353515625,-0.7847747802734375,0.238677978515625,0.2909758134494597,0.2856937497755157,None
174,9.883,-0.000335693359375,-0.811798095703125,0.379669189453125,0.42364590281764214,0.00037457636878629653,None
175,9.933,0.0901336669921875,-0.8756103515625,0.1708831787109375,0.19154532159712895,-0.10052034841038143,None
176,9.983,0.0540771484375,-0.96490478515625,0.12054443359375,0.12396520754710269,-0.055525938335643815,None
177,10.033,0.02313232421875,-0.992767333984375,-0.0896148681640625,-0.08990221414726848,-0.023200250652154843,None
178,10.082,0.0496826171875,-0.9510498046875,-0.1873779296875,-0.19330607144546802,-0.05118725288083451,None
179,10.132,0.018707275390625,-0.9499969482421875,-0.1754913330078125,-0.18165486716313342,-0.019360675037702408,None
180,10.182,0.107757568359375,-0.829803466796875,-0.401885986328125,-0.4358844691867335,-0.11608344341013713,None
181,10.232,0.0666961669921875,-0.96435546875,-0.42132568359375,-0.4003563246832607,-0.06324980449758737,None
182,10.282,0.3161163330078125,-0.9849853515625,-0.3778076171875,-0.408014762410585,-0.09403972689662117,None
183,10.332,0.26495361328125,-1.0496368408203125,-0.349090576171875,-0.41609340726953115,-0.12293184854475044,None
184,10.381,0.3504180908203125,-1.003509521484375,-0.2036285400390625,-0.19886358781785513,-0.32378336144440406,None
185,10.431,0.3696136474609375,-0.99407958984375,-0.115203857421875,-0.11511949654840925,-0.3464667203115309,None
186,10.481,0.3426361083984375,-0.994873046875,-0.172332763671875,-0.17067913098322926,-0.32134950631022147,None
187,10.531,0.3780517578125,-0.923248291015625,-0.301300048828125,-0.3102447306747033,-0.36275875506235017,None
188,10.581,0.3653564453125,-0.9082794189453125,-0.219268798828125,-0.23466979951958655,-0.3641683465819144,None
189,10.631,0.4401397705078125,-0.896636962890625,-0.2154541015625,-0.23364079648861774,-0.43074405091382245,None
190,10.68,0.5221099853515625,-1.027679443359375,-0.14703369140625,-0.23169065150345822,-0.4232740697417315,None
191,10.73,0.6753387451171875,-0.978515625,-0.232452392578125,-0.23065487703603998,-0.419348715972317,None
192,10.78,0.6516876220703125,-0.9326934814453125,-0.3879241943359375,-0.20713864416016942,-0.3954865048292039,None
193,10.83,0.7084197998046875,-0.8881683349609375,-0.295166015625,-0.1637117208740703,-0.3536843978940398,None
194,10.88,0.5641632080078125,-0.8719329833984375,-0.2981414794921875,-0.3235406075399373,-0.5221415990416095,None
195,10.93,0.8369903564453125,-1.07037353515625,0.1263885498046875,-0.1634557251007981,-0.4113446277113924,None
196,11.179,1.42718505859375,2.911712646484375,1.186767578125,-0.5426473335119256,-0.5959545992734099,None
197,11.229,-1.093353271484375,-0.534332275390625,0.114990234375,-0.4013407510268275,-0.533508330573696,None
198,11.279,-0.9495391845703125,-0.0515289306640625,1.1078338623046875,-0.4314856601929592,-0.5675013077467806,Straight
199,11.328,-0.7065887451171875,-0.014801025390625,0.68170166015625,-0.462629817076204,-0.6041476959724055,None
200,11.378,-0.6857452392578125,-0.2278594970703125,0.4539337158203125,-0.4959843032483163,-0.6249394664496981,None
201,11.428,-0.9708251953125,-0.48309326171875,0.6610260009765625,-0.5221387597945459,-0.6696948297840023,None
202,11.478,-0.8965301513671875,-0.41558837890625,0.4138336181640625,-0.6149110121237178,-0.7490246307627123,None
203,11.528,-0.956756591796875,-0.6046295166015625,0.4556732177734375,-0.7218591060024254,-0.8350778637003897,None
204,11.578,-0.56475830078125,-0.61602783203125,0.22552490234375,0.34378166130845905,0.6524296379023329,None
205,11.627,-0.2787322998046875,-0.8000335693359375,0.3495330810546875,0.4003557738662324,0.3041365756101107,None
206,11.677,-0.2591400146484375,-0.926605224609375,0.0130767822265625,0.01411116606867162,0.269306804210583,None
207,11.727,0.032745361328125,-0.9864959716796875,0.2889862060546875,0.2811278449801258,-0.031838771465554076,None
208,11.777,0.158203125,-1.005523681640625,-0.007476806640625,-0.007435528460306977,-0.15541796788603857,None
209,11.827,0.2899169921875,-1.0299072265625,-0.131011962890625,-0.12619064230257931,-0.2689581088714871,None
210,11.877,0.339324951171875,-0.9780731201171875,-0.047821044921875,-0.0488347826219034,-0.32741794123783835,None
211,11.926,0.437408447265625,-0.8594207763671875,-0.0794525146484375,-0.09205635406430751,-0.4520566809077674,None
212,11.976,0.3683013916015625,-0.9006195068359375,-0.1304779052734375,-0.1433788524336962,-0.37515701941242063,None
213,12.026,0.3965911865234375,-0.839019775390625,-0.108123779296875,-0.12781223121555477,-0.42447632468520796,None
214,12.076,0.3639984130859375,-0.9736785888671875,0.03326416015625,0.03414346951232157,-0.34999016721173143,None
215,12.126,0.400848388671875,-0.8997802734375,-0.184295654296875,-0.20065716800133793,-0.39999951854921106,None
216,12.176,0.3589630126953125,-1.025970458984375,0.0337982177734375,0.032924820725232645,-0.3300870860287354,None
217,12.226,0.36810302734375,-0.951568603515625,-0.20123291015625,-0.20689910233146028,-0.35396529169984076,None
218,12.275,0.365264892578125,-1.0103759765625,-0.098052978515625,-0.09659224747567076,-0.33857236560224746,None
219,12.325,0.3605804443359375,-1.0224456787109375,-0.184814453125,-0.1778747240282382,-0.32785869144677404,None
220,12.375,0.49334716796875,-0.967926025390625,-0.17376708984375,-0.1858319563211232,-0.31839308348979184,None
221,12.425,0.4585113525390625,-0.918731689453125,-0.226776123046875,-0.23964350579666663,-0.43603960936319297,None
222,12.475,0.4779815673828125,-0.93780517578125,-0.134979248046875,-0.14246293549462033,-0.45041232556747757,None
223,12.525,0.4612884521484375,-1.0842437744140625,0.1118011474609375,-0.07890024756547749,-0.3888576652090379,None
224,12.574,1.156036376953125,-0.9346923828125,0.2827301025390625,0.15177750542069088,-0.2982281805226814,None
225,12.824,2.7284393310546875,2.5781707763671875,0.197052001953125,-0.5017407217204175,-0.4775716398212049,None
226,12.873,-1.224365234375,-0.612213134765625,1.341796875,-0.28110148712790234,-0.43865488956701293,None
227,12.923,-1.01708984375,0.378204345703125,0.908721923828125,-0.4168374876758342,-0.5863345237852986,Straight
228,12.973,-0.9060821533203125,-0.056793212890625,0.1307830810546875,-0.5067119066837615,-0.6662962998356114,None
229,13.023,-0.7509307861328125,-0.099456787109375,0.585174560546875,-0.5017480830519421,-0.7396669590032411,None
230,13.073,-0.8634796142578125,-0.44775390625,0.6024017333984375,-0.5808362257314346,-0.800155691629623,None
231,13.123,-0.8480682373046875,-0.6419525146484375,0.362152099609375,-0.6819046810891183,-0.8623539285412439,None
232,13.172,-0.622711181640625,-0.7169952392578125,0.4018096923828125,0.48887413319476253,0.6038905915308137,None
233,13.222,-0.42529296875,-0.8209228515625,0.0915985107421875,0.11089175536644519,0.457759998432417,None
234,13.272,-0.18780517578125,-0.91326904296875,0.2488861083984375,0.26293326104077236,0.19461149364014,None
235,13.322,-0.139739990234375,-0.9300537109375,0.17242431640625,0.18228565831790547,0.14614584971097128,None
236,13.372,-0.041412353515625,-0.9626922607421875,0.0671539306640625,0.06958728486258833,0.042873491518205124,None
237,13.422,0.107147216796875,-1.0450592041015625,-0.124542236328125,-0.11833508301559578,-0.10128349484964237,None
238,13.472,0.1792755126953125,-0.991455078125,-0.1595458984375,-0.15887699925233012,-0.17574529224145563,None
239,13.521,0.27166748046875,-0.8864898681640625,-0.268829345703125,-0.2902012280760822,-0.2814131854314191,None
240,13.571,0.3773040771484375,-0.798431396484375,-0.353302001953125,-0.40464936738491414,-0.3966848330359891,None
241,13.621,0.35821533203125,-0.843902587890625,-0.33245849609375,-0.36653599211846494,-0.3673243325917696,None
242,13.671,0.33123779296875,-0.85076904296875,-0.208160400390625,-0.23766277498683852,-0.35373289465893676,None
243,13.721,0.2856903076171875,-0.9254150390625,-0.3229217529296875,-0.32946543506222337,-0.2798344229400055,None
244,13.771,0.35150146484375,-0.912811279296875,-0.3189849853515625,-0.32989067837795066,-0.34164552123756536,None
245,13.82,0.2743072509765625,-0.932891845703125,-0.29400634765625,-0.30058181884837715,-0.2700246786345955,None
246,13.87,0.3218536376953125,-0.9693756103515625,-0.285125732421875,-0.28218022279767374,-0.30350378325703925,None
247,13.92,0.3348541259765625,-0.984039306640625,-0.27105712890625,-0.26556298867253886,-0.3117205481583153,None
248,13.97,0.3406524658203125,-0.9557342529296875,-0.3115692138671875,-0.30994573343810494,-0.3209495672833536,None
249,14.02,0.3370513916015625,-0.945587158203125,-0.298736572265625,-0.30125066485391444,-0.32180762011052066,None
250,14.07,0.32611083984375,-0.9438934326171875,-0.2496337890625,-0.25568163947572925,-0.3168066107421405,None
251,14.119,0.3834075927734375,-0.9072265625,-0.2170562744140625,-0.2326855571144986,-0.380156922836939,None
252,14.169,0.419891357421875,-0.9516143798828125,-0.3176422119140625,-0.3166201490063195,-0.3860875707813626,None
253,14.219,0.4259490966796875,-0.9781341552734375,-0.227569580078125,-0.22660467380569047,-0.3904723154060194,None
254,14.269,0.374481201171875,-0.987457275390625,-0.042327880859375,-0.04282620388730418,-0.3543105265973391,None
255,14.319,1.47607421875,-1.6779937744140625,0.107757568359375,0.1257249417944966,-0.2850260289102217,None
256,14.568,1.525543212890625,1.859710693359375,-2.141021728515625,-0.18756171080421316,-0.31266637610763776,None
257,14.618,-1.500885009765625,-0.81060791015625,2.1837310791015625,-0.02192082568432451,-0.23398496216508768,None
258,14.668,-0.572052001953125,0.4935455322265625,0.5057220458984375,-0.15747212733104607,-0.37500444770423363,Straight
259,14.718,-0.9607696533203125,0.092559814453125,0.4861907958984375,-0.12336751275475753,-0.4074615920448323,None
260,14.767,-1.012420654296875,-0.0862579345703125,0.9933013916015625,-0.1290403598512744,-0.4842098551860554,None
261,14.817,-1.203338623046875,-0.2435455322265625,0.7610015869140625,-0.2506971217632861,-0.6200522468873891,None
262,14.867,-0.8679046630859375,-0.3174591064453125,0.8215484619140625,-0.45119147138980703,-0.7562379896487738,None
263,14.917,-0.5689697265625,-0.5435333251953125,0.5458221435546875,0.7085909020553295,0.5941365867396124,None
264,14.967,-0.0946502685546875,-0.67608642578125,0.3759613037109375,0.48599626090794157,0.12144650409258442,None
265,15.017,0.1032257080078125,-0.852996826171875,0.2852020263671875,0.3170979515435706,-0.11402158491526919,None
266,15.066,0.140625,-1.057403564453125,0.1373138427734375,0.12877816335594902,-0.13075129951305914,None
267,15.116,0.21917724609375,-1.0677490234375,-0.1322784423828125,-0.12294546712446587,-0.19961330359964408,None
268,15.166,0.3409271240234375,-0.90106201171875,-0.337432861328125,-0.3506993482171195,-0.3339847644119154,None
269,15.216,0.2132415771484375,-1.0155029296875,-0.3092803955078125,-0.2913463583729411,-0.19694232848261728,None
270,15.266,0.2970428466796875,-0.896148681640625,-0.1419677734375,-0.15646861886410088,-0.31113401207186075,None
271,15.316,0.1737518310546875,-0.965423583984375,-0.220611572265625,-0.222770412569361,-0.1728123961396907,None
272,15.365,0.2678375244140625,-0.8684844970703125,-0.3706207275390625,-0.39249901816806393,-0.2728831187222867,None
273,15.415,0.2867431640625,-0.9246978759765625,-0.3437652587890625,-0.34845913149288676,-0.27910762337441347,None
274,15.465,0.227691650390625,-0.921722412109375,-0.404876708984375,-0.4021716792223044,-0.22059863283141934,None
275,15.515,0.2715301513671875,-0.9410858154296875,-0.359130859375,-0.3565344940211262,-0.26027625377873975,None
276,15.565,0.33367919921875,-0.9425811767578125,-0.346405029296875,-0.34494970039873535,-0.3153257101989994,None
277,15.615,0.3737945556640625,-0.932525634765625,-0.27490234375,-0.28276278292371876,-0.35887117094799076,None
278,15.664,0.3900604248046875,-0.9203033447265625,-0.2217864990234375,-0.23428547113897247,-0.3809695003709107,None
279,15.714,0.4676666259765625,-0.873931884765625,-0.167877197265625,-0.1886451545780982,-0.4651956114026919,None
280,15.764,0.4517822265625,-0.94012451171875,-0.228118896484375,-0.23580497242538082,-0.4231366262426151,None
281,15.814,0.5466461181640625,-0.90240478515625,-0.1738739013671875,-0.18919840276540223,-0.5112217903469541,None
282,15.864,0.4126434326171875,-1.032440185546875,-0.1107025146484375,-0.07483991005695378,-0.4615321920936546,None
283,15.914,0.5177154541015625,-1.05987548828125,0.04876708984375,0.03996170862997329,-0.4184608614747908,None
284,15.964,0.44342041015625,-1.0928192138671875,0.3046875,0.1922995010485464,-0.36031169573792393,None
285,16.013,0.8358612060546875,-1.481475830078125,0.4430084228515625,0.2867806882005466,-0.3115691062092602,None
286,16.248,1.0628814697265625,2.5142059326171875,-0.0009918212890625,0.6138723270448386,-0.7453952349546079,None
287,16.297,-1.0822296142578125,-0.162841796875,1.4195098876953125,0.7322179697331481,-0.7146884337629505,Straight
288,16.347,-0.3360748291015625,0.313507080078125,0.8967742919921875,0.6357707371201713,-0.7433982862638808,None
289,16.397,-0.1773529052734375,0.3739776611328125,0.7050323486328125,0.5281669450474928,-0.7707995753776568,None
290,16.447,-0.5882720947265625,-0.0464935302734375,0.97100830078125,0.530185137596118,-0.7648525121811195,None
291,16.497,-0.85528564453125,-0.2288360595703125,0.691314697265625,0.5170943697456238,-0.7867104474315338,None
292,16.547,-1.1432647705078125,-0.2119140625,0.9380340576171875,0.5038815085675028,-0.8076239537102796,None
293,16.597,-1.23681640625,-0.236083984375,0.5512237548828125,0.35990097654610925,-0.8918340997743422,None
294,16.646,-1.112060546875,-0.3444671630859375,0.852569580078125,0.14092350609534238,-0.966429202709338,None
295,16.696,-0.601409912109375,-0.5010223388671875,0.413848876953125,0.6368456447197754,0.6792283897496613,None
296,16.746,-0.143218994140625,-0.6318206787109375,0.279937744140625,0.40508517099037783,0.20293343198844982,None
297,16.796,0.032623291015625,-0.9276580810546875,0.1818695068359375,0.1923897734067618,-0.03448985772971947,None
298,16.846,0.2889556884765625,-1.0089569091796875,0.211669921875,0.2053211765953733,-0.26988783939422845,None
299,16.896,0.2829132080078125,-1.0144805908203125,-0.0553131103515625,-0.05444271259678645,-0.26825514133539935,None
300,16.945,0.421112060546875,-0.9243621826171875,-0.1474609375,-0.15753527003344248,-0.4102750862202905,None
301,16.995,0.3888092041015625,-0.8699493408203125,-0.1374969482421875,-0.15611381250490008,-0.4038522165456606,None
302,17.045,0.41552734375,-0.9646759033203125,-0.146087646484375,-0.1497298643154141,-0.39183187517990603,None
303,17.095,0.429718017578125,-0.9169921875,-0.256072998046875,-0.2689628673770143,-0.41138662309634494,None
304,17.145,0.3005218505859375,-0.9961700439453125,-0.1416015625,-0.1407313138260099,-0.28618284570047897,None
305,17.195,0.2653656005859375,-0.959808349609375,-0.304656982421875,-0.302539365356849,-0.25482174451447,None
306,17.244,0.2825469970703125,-0.9833221435546875,-0.2628173828125,-0.25821125562667435,-0.26748043788259057,None
307,17.294,0.242218017578125,-0.9740142822265625,-0.2439117431640625,-0.2429182037991825,-0.2345046404502737,None
308,17.344,0.27081298828125,-0.9248199462890625,-0.2572174072265625,-0.2679562098505577,-0.2715208969151739,None
309,17.394,0.2708587646484375,-0.9904937744140625,-0.136688232421875,-0.13670452925423862,-0.2614673844714735,None
310,17.444,0.322174072265625,-0.9595184326171875,-0.187347412109375,-0.19163284131959107,-0.31298649181593124,None
311,17.494,0.41168212890625,-0.96490478515625,-0.20172119140625,-0.20463415357378714,-0.38537035753230825,None
312,17.543,0.4316558837890625,-0.9769287109375,-0.1817169189453125,-0.18287167391070747,-0.3984301237241636,None
313,17.593,0.4111175537109375,-0.9140167236328125,-0.49383544921875,-0.1578840456576473,-0.3651480357329174,None
314,17.643,0.4106597900390625,-1.0576629638671875,-0.372589111328125,-0.04618298883352731,-0.30190734532743274,None
315,17.693,0.9250946044921875,-1.238555908203125,-0.0063323974609375,0.21334720025681278,-0.20120413302292012,None
316,17.743,2.1605072021484375,-0.6751251220703125,0.985382080078125,0.6761317036044839,-0.09565671162509055,None
317,17.957,3.09967041015625,2.833282470703125,-1.9737396240234375,0.2716042971200105,-0.1857539198223568,Straight
318,18.027,-1.621002197265625,-0.5996551513671875,2.4149932861328125,0.5960819241242862,-0.011237766361989315,None
319,18.077,-0.6607818603515625,0.10089111328125,0.0358428955078125,0.4030514510350226,-0.09049195571517783,None
320,18.127,-0.6873321533203125,-0.0684967041015625,0.94268798828125,0.4455619129165458,-0.1273105439909163,None
321,18.176,-0.6710205078125,-0.1871185302734375,0.65997314453125,0.4357025060866966,-0.1793911822471521,None
322,18.226,-0.7327117919921875,-0.2506866455078125,0.6812896728515625,0.37564899017862813,-0.2493162983086602,None
323,18.276,-0.8099822998046875,-0.40234375,0.7844085693359375,0.3215284692970762,-0.3277148297406076,None
324,18.326,-0.724029541015625,-0.5071258544921875,0.5891571044921875,0.209109115843479,-0.42546039320788026,None
325,18.376,-0.6007843017578125,-0.5843505859375,0.601959228515625,0.7175234754490861,0.5822268693109579,None
326,18.426,-0.5633697509765625,-0.71868896484375,0.38336181640625,0.4706465721642485,0.5688382292193543,None
327,18.475,-0.2530059814453125,-0.83428955078125,0.4730987548828125,0.4932766831612966,0.25507104072533027,None
328,18.525,-0.216796875,-0.91888427734375,0.235809326171875,0.2485711583805591,0.22278620331228502,None
329,18.575,-0.0823516845703125,-0.989227294921875,0.2032623291015625,0.2012709222886446,0.08127509228309278,None
330,18.625,0.066986083984375,-0.96258544921875,0.022430419921875,0.023295939711706543,-0.06940311112518982,None
331,18.675,0.0723114013671875,-0.97637939453125,-0.3065948486328125,-0.2995889228758172,-0.07048329891823621,None
332,18.725,0.1978607177734375,-1.006622314453125,-0.0255584716796875,-0.025382148715844478,-0.19280873958427758,None
333,18.775,0.154754638671875,-0.9663543701171875,-0.19537353515625,-0.19816639728207913,-0.1550681478862111,None
334,18.824,0.242034912109375,-0.873443603515625,-0.2601776123046875,-0.2854795313622223,-0.25667519492577207,None
335,18.874,0.2686767578125,-0.910552978515625,-0.2120361328125,-0.22679723172141467,-0.2762017380947349,None
336,18.924,0.25921630859375,-0.9082183837890625,-0.2515869140625,-0.2669582043666413,-0.26520465046376807,None
337,18.974,0.2576904296875,-0.93634033203125,-0.2707977294921875,-0.27782315837772736,-0.2555943349186806,None
338,19.024,0.2692718505859375,-0.9904022216796875,-0.2270355224609375,-0.2234400638538214,-0.25616502553281556,None
339,19.074,0.26885986328125,-0.9770660400390625,-0.2275543212890625,-0.2268252274631105,-0.2588634134622144,None
340,19.123,0.2051544189453125,-1.008514404296875,-0.1720733642578125,-0.1681900694106406,-0.1966106517338265,None
341,19.173,0.260467529296875,-0.9586334228515625,-0.11785888671875,-0.122025911518402,-0.26037484058182236,None
342,19.223,0.210296630859375,-0.9156646728515625,-0.2125244140625,-0.22608872501533475,-0.2183219420229093,None
343,19.273,0.0664215087890625,-0.8120880126953125,-0.181396484375,-0.21799822765411456,-0.0795707759099888,None
344,19.323,-0.1213836669921875,-0.52520751953125,-0.1793975830078125,-0.32323813727567074,0.2136584696414161,None
345,19.373,-0.5718841552734375,-0.5800933837890625,0.5685882568359375,0.699989331490233,0.5756810812399742,None
346,19.422,-0.7606658935546875,-1.0342254638671875,0.843109130859375,0.7144446618894529,0.6547079049214872,None
347,19.472,-0.28204345703125,-1.111572265625,1.184173583984375,0.68322136485824,0.7125926431454808,None
348,19.522,-0.1972198486328125,-1.5425872802734375,0.6807708740234375,0.6333528758300483,0.7668007481148805,None
349,19.861,-2.1177825927734375,2.2845611572265625,0.6149749755859375,0.6903442795996174,0.6313779941191379,Straight
350,19.911,-0.783294677734375,0.5902862548828125,0.58526611328125,0.685354020998725,0.5481091601428043,None
351,19.961,-1.2277984619140625,-0.3861541748046875,0.03594970703125,0.6892838287902516,0.5303800837284105,None
352,20.011,-1.0940093994140625,-0.4557037353515625,0.5944061279296875,0.6624603777473435,0.5024198599175063,None
353,20.06,-0.9634552001953125,-0.461334228515625,0.37750244140625,0.6119406017998164,0.4537090271650297,None
354,20.11,-0.7577056884765625,-0.508758544921875,0.527313232421875,0.5444512832819841,0.38492740261742237,None
355,20.16,-0.7865447998046875,-0.562286376953125,0.3465728759765625,0.5247017964521346,0.7657929152095723,None
356,20.21,-0.484771728515625,-0.6739349365234375,0.220245361328125,0.3106375256867172,0.5644135198180976,None
357,20.26,-0.43585205078125,-0.7535247802734375,0.0758056640625,0.10009617768128305,0.4988050553676054,None
358,20.31,-0.2637481689453125,-0.8689422607421875,0.137786865234375,0.1566117960107036,0.28715663730945296,None
359,20.359,-0.3519287109375,-0.9547271728515625,-0.0102081298828125,-0.010691584685992789,0.34584986970313214,None
360,20.409,-0.295928955078125,-0.9145965576171875,-0.2148895263671875,-0.22872700865937035,0.3004334253832073,None
361,20.459,-0.1242218017578125,-0.8463134765625,-0.335052490234375,-0.3680991758467971,0.13522052662470255,None
362,20.509,-0.151519775390625,-0.7955474853515625,-0.7550048828125,-0.4639809929734375,0.05922409311311673,None
363,20.559,0.1183013916015625,-0.8364410400390625,-0.72015380859375,-0.496063114231355,0.006826828806134338,None
364,20.609,0.0124053955078125,-1.040130615234375,-0.5417022705078125,-0.4968724304487292,-0.01832330669124794,None
365,20.658,0.1808624267578125,-0.9832916259765625,-0.524749755859375,-0.5376766887781361,-0.060876951971403075,None
366,20.708,0.3348541259765625,-0.9978790283203125,-0.4443817138671875,-0.5562736551187774,-0.09269501467353918,None
367,20.758,0.2457275390625,-0.9798126220703125,-0.3843231201171875,-0.3651557751699574,-0.22735801892404828,None
368,20.808,0.3114471435546875,-0.8603668212890625,-0.4191436767578125,-0.43796149369865983,-0.30945573395856685,None
369,20.858,0.270751953125,-0.9285736083984375,-0.285003662109375,-0.2934168187600552,-0.26850818806295224,None
370,20.908,0.2182769775390625,-0.9892578125,-0.30438232421875,-0.2940817050206638,-0.20635146098622212,None
371,20.958,0.18243408203125,-1.0136871337890625,-0.526885986328125,-0.25527817814852666,-0.22884650956705635,None
372,21.007,0.2326812744140625,-1.0500335693359375,-0.2769927978515625,-0.19034623213650764,-0.24978484219539726,None
373,21.057,0.12506103515625,-1.086151123046875,-0.1990814208984375,-0.15366883699820721,-0.2677757473628022,None
374,21.107,0.2282867431640625,-0.94586181640625,-0.109771728515625,-0.11528097456982424,-0.2331375998266032,None
375,21.157,0.072998046875,-0.9372100830078125,-0.2778167724609375,-0.2842057841449497,-0.07446944319092026,None
376,21.207,0.0314483642578125,-0.842071533203125,-0.13836669921875,-0.16214268271282606,-0.03682723641541154,None
377,21.257,0.065826416015625,-0.764739990234375,-0.2255401611328125,-0.28287806842832686,-0.08228117295694753,None
378,21.306,-0.0216064453125,-0.8742218017578125,-0.2388916015625,-0.26359748202513267,0.02383418514176504,None
379,21.356,0.083038330078125,-0.9376983642578125,-0.261810302734375,-0.26892002568932494,-0.0849847499930067,None
380,21.406,0.063629150390625,-0.899505615234375,-0.4009552001953125,-0.4071344695729337,-0.06447532938918123,None
381,21.456,0.2476806640625,-0.935211181640625,-0.2611236572265625,-0.26892746727125105,-0.24716816942499523,None
382,21.506,0.2713775634765625,-1.0604705810546875,-0.14031982421875,-0.23708302619563146,-0.23259966118491834,None
383,21.556,0.4580230712890625,-1.0296783447265625,-0.087982177734375,-0.20926366802458285,-0.24330659748410519,None
384,21.605,0.4249114990234375,-1.0602874755859375,-0.125030517578125,-0.17183132666248455,-0.23183264213181484,None
385,21.655,0.5008544921875,-0.975311279296875,-0.0076446533203125,-0.007837926887146456,-0.4568072729498883,None
386,21.705,0.48455810546875,-0.917236328125,-0.049163818359375,-0.05352311717379828,-0.4665825749360244,None
387,21.755,0.5150299072265625,-0.9326934814453125,0.0341033935546875,0.036539999140080374,-0.4831467586914052,None
388,21.805,0.7777252197265625,-0.9995269775390625,0.0043182373046875,0.13049749696136748,-0.46039627196375,None
389,21.855,1.2807769775390625,-1.2726287841796875,0.1795806884765625,0.2429435423192611,-0.39487941826395345,None
390,22.094,1.9202728271484375,2.125732421875,-1.811737060546875,-0.10721490633773455,-0.4432594313213882,None
391,22.144,-1.2850799560546875,-0.85345458984375,1.974517822265625,0.04809297899606866,-0.3798499299104184,None