index,time,acc x,acc y,acc z,gyro x,gyro y,gyro z,mag x,mag y,mag z
0,0,0.137847900390625,-0.73968505859375,-0.540130615234375,0.46268215775489807,-1.3450939655303955,-0.1806720495223999,0,0,0
1,0.05,0.0968017578125,-0.907745361328125,-0.4555511474609375,0.269765704870224,-0.2994743287563324,0.7640331983566284,409.5178527832031,6.4621734619140625,-325.3548889160156
2,0.1,-0.0319976806640625,-1.015350341796875,-0.4586334228515625,-0.3582814633846283,0.6057309508323669,0.30618762969970703,408.4853210449219,5.1664276123046875,-325.57452392578125
3,0.15,0.13671875,-0.92529296875,-0.3953857421875,-0.22456279397010803,0.09014960378408432,-0.024472054094076157,408.75726318359375,5.0605010986328125,-325.8061828613281
4,0.2,0.1088104248046875,-0.915679931640625,-0.524749755859375,0.42323702573776245,-0.5347949862480164,0.28753378987312317,409.07818603515625,5.6790313720703125,-325.8724670410156
5,0.249,-0.02008056640625,-1.005859375,-0.3965301513671875,0.5107452869415283,-0.6905217170715332,0.31719714403152466,408.13543701171875,5.2839813232421875,-325.9650573730469
6,0.299,-0.0532379150390625,-0.9247283935546875,-0.449188232421875,0.6354065537452698,-0.3776197135448456,0.13910169899463654,407.1995849609375,3.9617462158203125,-325.8833312988281
7,0.349,0.02978515625,-0.8643798828125,-0.3463897705078125,0.506436824798584,-0.32821783423423767,0.10731127858161926,406.35552978515625,2.6594696044921875,-325.727783203125
8,0.399,-0.021392822265625,-0.8516387939453125,-0.3191070556640625,0.7144760489463806,-0.19939805567264557,0.11586641520261765,405.8801574707031,1.889617919921875,-325.08782958984375
9,0.449,-0.065460205078125,-0.923736572265625,-0.2103424072265625,0.2170713245868683,-0.4307630956172943,-0.08339502662420273,405.47039794921875,0.6539764404296875,-324.2970275878906
10,0.499,-0.025787353515625,-0.868408203125,-0.1862335205078125,0.1905726045370102,-0.32441216707229614,-0.4349437355995178,405.10296630859375,0.3232574462890625,-324.2135314941406
11,0.548,0.013763427734375,-0.9363250732421875,-0.1481475830078125,-0.35220837593078613,-0.25836578011512756,-0.2635040879249573,405.10687255859375,0.2016143798828125,-324.3160400390625
12,0.598,0.075225830078125,-0.924102783203125,-0.2597198486328125,-0.594680666923523,-0.34915825724601746,-0.1692609339952469,405.2769775390625,1.15155029296875,-324.73394775390625
13,0.648,-0.0089111328125,-0.967437744140625,-0.4304351806640625,-0.409635990858078,-0.28535744547843933,-0.11928245425224304,404.98492431640625,2.32708740234375,-325.7788391113281
14,0.698,0.0264434814453125,-0.9258270263671875,-0.3675689697265625,-0.5493369102478027,-0.0358235128223896,0.25170865654945374,404.90966796875,2.92327880859375,-326.7142028808594
15,0.748,-0.13824462890625,-0.9150238037109375,-0.6502532958984375,-0.27858689427375793,0.8148447275161743,0.33241844177246094,404.86700439453125,3.92529296875,-327.42425537109375
16,0.798,0.0311737060546875,-0.9688262939453125,-0.2615203857421875,-0.05718312785029411,0.14382241666316986,0.25364959239959717,406.7076721191406,4.43463134765625,-327.1070251464844
17,0.847,-0.04925537109375,-0.8630218505859375,-0.3602142333984375,0.6215460896492004,-1.20796537399292,-0.19168607890605927,407.7906188964844,4.175079345703125,-327.1170654296875
18,0.897,0.03802490234375,-0.94183349609375,-0.291107177734375,0.2683510184288025,-0.5555420517921448,-0.438440203666687,406.8450927734375,4.03692626953125,-327.44281005859375
19,0.947,0.108306884765625,-0.9525299072265625,-0.357421875,-0.08099045604467392,-0.01926477439701557,-0.102016381919384,406.8756408691406,3.57342529296875,-327.7392578125
20,0.997,0.06634521484375,-1.018951416015625,-0.2477874755859375,0.28041380643844604,-0.44362643361091614,-0.4024486541748047,407.11566162109375,3.649200439453125,-327.62615966796875
21,1.047,-0.064483642578125,-0.8836822509765625,-0.400238037109375,-0.8955414295196533,-0.2838706076145172,-0.4871198534965515,406.94488525390625,3.364166259765625,-327.8743896484375
22,1.097,0.1054229736328125,-0.890289306640625,-0.4806060791015625,-0.0656338706612587,-0.12547670304775238,0.6660568714141846,406.1347961425781,4.73052978515625,-328.237060546875
23,1.146,-0.060272216796875,-0.948150634765625,-0.4472503662109375,-0.10060064494609833,0.26101455092430115,-0.02953552082180977,404.95556640625,4.7326507568359375,-328.6327819824219
24,1.196,0.02642822265625,-0.932159423828125,-0.4444122314453125,0.24526195228099823,0.5251346230506897,0.09593931585550308,405.1377258300781,4.5390625,-328.76312255859375
25,1.246,-0.0541229248046875,-0.8882598876953125,-0.3101348876953125,0.6327491998672485,-0.7607071995735168,0.2679518163204193,406.13970947265625,4.0892181396484375,-328.107421875
26,1.296,-0.1879119873046875,-0.8975982666015625,-0.44195556640625,1.3319251537322998,-0.3871367871761322,-0.261888325214386,405.64434814453125,3.2520904541015625,-328.0876770019531
27,1.346,0.0288543701171875,-0.93487548828125,-0.11553955078125,0.14224448800086975,0.5552706718444824,-0.032523587346076965,405.0284423828125,1.454315185546875,-326.6241455078125
28,1.396,-0.0584564208984375,-0.98138427734375,-0.3688201904296875,0.14100877940654755,0.7097856998443604,-0.039449404925107956,406.2850341796875,0.918426513671875,-325.75616455078125
29,1.445,0.0803680419921875,-0.99066162109375,-0.08258056640625,0.3512352705001831,0.6780016422271729,-0.384456604719162,407.5352783203125,0.728973388671875,-324.99005126953125
30,1.495,0.080902099609375,-0.9285430908203125,-0.2695159912109375,0.6804549694061279,0.07101345807313919,-0.2854250967502594,409.0928649902344,0.467498779296875,-323.96722412109375
31,1.545,0.027191162109375,-0.9777984619140625,-0.1972198486328125,0.478712260723114,-0.28795456886291504,0.13570350408554077,409.53594970703125,-0.0085296630859375,-323.0821838378906
32,1.595,0.00079345703125,-1.0239410400390625,-0.2009124755859375,0.10258603096008301,0.3566281497478485,-0.00936047825962305,409.0097351074219,-0.7613677978515625,-322.62249755859375
33,1.645,0.0615386962890625,-0.96014404296875,-0.2058258056640625,-0.10194633901119232,-0.10627264529466629,-0.18450166285037994,409.727783203125,-0.86212158203125,-322.06353759765625
34,1.695,0.0292205810546875,-0.9705657958984375,-0.226806640625,0.18052157759666443,-0.10081875324249268,-0.11174677312374115,410.1379089355469,-0.57861328125,-322.3196105957031
35,1.744,0.0562896728515625,-0.9921417236328125,-0.10833740234375,-0.13356071710586548,-0.09069395065307617,-0.02490588277578354,410.09649658203125,-0.8223419189453125,-322.37115478515625
36,1.794,0.06768798828125,-0.9474945068359375,-0.222137451171875,0.025788987055420876,-0.08304162323474884,-0.06871940940618515,410.08984375,-0.8681488037109375,-322.3033447265625
37,1.844,0.037811279296875,-0.9827117919921875,-0.193572998046875,0.0008793757879175246,-0.030009031295776367,-0.029152026399970055,409.7945861816406,-0.7674713134765625,-322.3714904785156
38,1.894,0.0289459228515625,-0.998870849609375,-0.3841705322265625,0.030969899147748947,0.6836949586868286,-0.1815362423658371,409.90570068359375,-0.6264801025390625,-322.43231201171875
39,1.944,-0.063690185546875,-1.1572113037109375,-0.5297698974609375,0.9981013536453247,0.6578702926635742,-0.574498176574707,410.94659423828125,-0.4047393798828125,-321.502685546875
40,1.994,0.134918212890625,-1.3372955322265625,-0.8433685302734375,3.5309395790100098,-0.5473810434341431,-0.6349790692329407,412.81982421875,-1.379241943359375,-319.68695068359375
41,2.043,0.8627166748046875,-0.950592041015625,-0.1049041748046875,7.66758394241333,-0.6418657302856445,0.07600129395723343,413.97161865234375,-4.1970367431640625,-313.9013977050781
42,2.093,2.1497955322265625,-0.0470733642578125,1.286834716796875,8.633310317993164,0.027908597141504288,0.8149073123931885,414.7367858886719,-8.560409545898438,-301.56982421875
43,2.143,5.8695068359375,1.2425537109375,1.9319000244140625,7.787344932556152,1.5929511785507202,3.667942523956299,413.9785461425781,-8.12274169921875,-285.09417724609375
44,2.193,1.9310302734375,4.0414276123046875,0.8779144287109375,4.459518909454346,-0.4907393455505371,6.284853935241699,405.52008056640625,-6.5431365966796875,-268.8087158203125
45,2.243,-12.251327514648438,-2.046356201171875,-1.5946502685546875,0.026619359850883484,3.8762102127075195,13.26153564453125,395.18975830078125,-18.374252319335938,-245.9908447265625
46,2.293,-3.375762939453125,0.159332275390625,2.1558990478515625,-0.691874086856842,-4.712329864501953,-3.0680599212646484,368.4891357421875,-27.159500122070312,-230.75936889648438
47,2.342,-4.767608642578125,2.5796356201171875,0.1364288330078125,-1.27571439743042,-1.617390751838684,-5.561948299407959,388.9849853515625,-21.37548828125,-231.7090606689453
48,2.392,-0.21588134765625,1.75738525390625,0.618316650390625,-4.53464937210083,-0.3221468925476074,-3.8368935585021973,396.6771545410156,-12.429031372070312,-246.99948120117188
49,2.442,4.8390655517578125,-2.3301544189453125,3.1420135498046875,-5.2527689933776855,-0.7730389833450317,-0.5301299095153809,403.24810791015625,-5.4435577392578125,-266.80535888671875
50,2.492,3.4769134521484375,0.76885986328125,-1.571014404296875,2.0315165519714355,-4.031822681427002,0.6921331882476807,408.779052734375,-7.7996063232421875,-279.7547607421875
51,2.542,-0.0500640869140625,-1.5656585693359375,1.9202117919921875,-0.5961587429046631,-0.9443854093551636,1.168143391609192,410.52459716796875,-7.187652587890625,-282.55108642578125
52,2.592,-0.150909423828125,-0.6356201171875,0.5623931884765625,-1.7886322736740112,-1.3795839548110962,1.0926156044006348,408.5458068847656,-8.481597900390625,-282.8006896972656
53,2.641,0.3116455078125,-0.4425048828125,0.81964111328125,-4.913828372955322,0.3732191324234009,-0.7325602173805237,407.09088134765625,-10.223861694335938,-287.35614013671875
54,2.691,0.4552764892578125,-0.486602783203125,0.175750732421875,-6.145117282867432,1.071225881576538,-0.08899591863155365,407.4897766113281,-10.254852294921875,-296.5939025878906
55,2.741,0.42120361328125,-1.1357574462890625,0.1706085205078125,-4.171812057495117,1.1768532991409302,0.15264306962490082,408.09967041015625,-8.566818237304688,-307.88623046875
56,2.791,0.186920166015625,-1.416046142578125,-0.374969482421875,-4.330430030822754,1.407366394996643,-0.09799473732709885,408.19989013671875,-4.955322265625,-314.6980895996094
57,2.841,0.153411865234375,-1.1269378662109375,-0.3368072509765625,-2.5653767585754395,0.5259923934936523,-1.2558921575546265,409.5848083496094,-0.1529998779296875,-320.14703369140625
58,2.891,0.3275299072265625,-0.465240478515625,-0.2823333740234375,-1.8108768463134766,0.9030539393424988,-1.7800089120864868,412.02020263671875,4.9708251953125,-322.2615966796875
59,2.94,0.3975830078125,-0.284759521484375,0.1288604736328125,-1.577040672302246,0.8318274617195129,-0.3598940074443817,414.79730224609375,9.559173583984375,-323.3050537109375
60,2.99,0.3668975830078125,-0.386383056640625,-0.25775146484375,-0.6514574289321899,-0.5850397348403931,-0.3076603412628174,416.05133056640625,12.22198486328125,-323.1588134765625
61,3.04,0.6737213134765625,-0.6013946533203125,-0.358245849609375,-0.0695125013589859,0.04024515673518181,0.42315950989723206,415.2467041015625,13.528884887695312,-324.1319580078125
62,3.09,0.516143798828125,-1.2740020751953125,-0.894073486328125,-0.7104650735855103,-0.80179363489151,1.055673360824585,414.41827392578125,13.18450927734375,-324.9198913574219
63,3.14,0.2598419189453125,-1.25543212890625,-1.1617584228515625,0.06705626845359802,0.06064150854945183,0.40420791506767273,412.17333984375,12.79449462890625,-326.7159118652344
64,3.19,0.2250213623046875,-0.9417266845703125,-0.54534912109375,1.0151466131210327,0.8102558255195618,0.2289583534002304,411.7197265625,12.10211181640625,-326.4786376953125
65,3.239,0.357421875,-0.700286865234375,-0.0180511474609375,0.27426058053970337,0.7194143533706665,-0.17857959866523743,413.05419921875,10.103988647460938,-324.786376953125
66,3.289,0.3867950439453125,-0.5679168701171875,-0.1800384521484375,-0.5803888440132141,0.3371516764163971,0.0586601160466671,414.14813232421875,9.82952880859375,-323.895751953125
67,3.339,0.354217529296875,-0.7021026611328125,-0.3284454345703125,-0.5341765880584717,0.17893458902835846,0.4944576621055603,414.6758728027344,10.488510131835938,-323.7181396484375
68,3.389,0.325927734375,-1.0379486083984375,-0.462493896484375,-1.577286720275879,-0.5600864887237549,0.6247125864028931,413.9916076660156,10.736343383789062,-324.91204833984375
69,3.439,0.1283111572265625,-0.929443359375,-0.9639129638671875,-0.6596306562423706,0.2591373026371002,0.7209363579750061,412.23614501953125,12.212646484375,-327.16705322265625
70,3.489,0.1254425048828125,-0.96112060546875,-0.4907989501953125,0.38574904203414917,1.2122589349746704,0.6345047950744629,412.04949951171875,12.474655151367188,-327.78570556640625
71,3.538,0.1466827392578125,-0.7795867919921875,-0.2830810546875,-0.17807438969612122,0.5431109666824341,-0.0818844810128212,413.4471435546875,11.484146118164062,-326.0419006347656
72,3.588,0.24859619140625,-0.687255859375,-0.3512420654296875,-0.14859400689601898,0.36617958545684814,0.13866759836673737,414.52972412109375,11.68609619140625,-325.3580322265625
73,3.638,0.2082366943359375,-0.810394287109375,-0.4696807861328125,0.304879754781723,-0.3320285379886627,0.0268382728099823,414.6534423828125,12.032974243164062,-324.767578125
74,3.688,0.31353759765625,-0.874420166015625,-0.404083251953125,0.7468904256820679,-0.049016546458005905,-0.15297117829322815,414.35491943359375,11.330718994140625,-324.70965576171875
75,3.738,0.3082427978515625,-1.00982666015625,-0.4632110595703125,0.22873331606388092,-0.4144485890865326,0.5000620484352112,414.28582763671875,10.650543212890625,-324.75494384765625
76,3.788,0.1618194580078125,-1.0493621826171875,-0.46563720703125,0.2399444282054901,-0.25117549300193787,0.16503369808197021,413.265869140625,9.685134887695312,-325.1506042480469
77,3.837,0.1380157470703125,-0.885406494140625,-0.4605560302734375,0.37797844409942627,-0.13108637928962708,-0.3431997001171112,412.9373779296875,9.119796752929688,-324.7594909667969
78,3.887,0.230438232421875,-0.7662353515625,-0.321441650390625,0.035418178886175156,0.42276322841644287,-0.32390084862709045,413.20733642578125,9.1494140625,-324.63934326171875
79,3.937,0.27935791015625,-0.796478271484375,-0.34375,-0.018612565472722054,0.005623264703899622,-0.21970519423484802,414.14990234375,9.199356079101562,-324.40838623046875
80,3.987,0.2945556640625,-0.85455322265625,-0.3968505859375,-0.042627621442079544,-0.026312829926609993,-0.19138699769973755,414.0694885253906,9.522247314453125,-324.3161926269531
81,4.037,0.2726898193359375,-0.887786865234375,-0.4586944580078125,-0.03434412553906441,0.1694689244031906,-0.09889861941337585,414.27069091796875,10.056640625,-324.300537109375
82,4.087,0.4721832275390625,-0.824310302734375,-0.1277313232421875,-0.11117605865001678,0.37114399671554565,-0.04952361062169075,414.74127197265625,10.34490966796875,-323.500732421875
83,4.136,0.2183837890625,-0.8514556884765625,-0.6057891845703125,0.04956595599651337,-0.12517203390598297,0.19919699430465698,414.8523864746094,10.443771362304688,-323.93560791015625
84,4.186,0.317413330078125,-0.8634796142578125,-0.4419097900390625,0.3453792333602905,-0.16642598807811737,-0.030223149806261063,414.2114562988281,10.067550659179688,-323.798583984375
85,4.236,0.2784576416015625,-0.8921661376953125,-0.4133758544921875,-0.02527552843093872,-0.0367116741836071,0.12501837313175201,414.15338134765625,9.603805541992188,-324.046875
86,4.286,0.26556396484375,-0.8863983154296875,-0.3780975341796875,0.010058759711682796,0.21224701404571533,0.17128627002239227,413.8778381347656,9.596939086914062,-324.0081481933594
87,4.336,0.2921295166015625,-0.8873291015625,-0.3082427978515625,0.08065223693847656,0.1541653275489807,-0.035783831030130386,414.0765380859375,9.357589721679688,-323.6674499511719
88,4.386,0.29547119140625,-0.85394287109375,-0.4049072265625,-0.019037339836359024,-0.0249644722789526,0.03581765294075012,414.14697265625,9.258499145507812,-323.5057373046875
89,4.435,0.2566680908203125,-0.8868255615234375,-0.449859619140625,0.11239472031593323,0.06649034470319748,0.032574720680713654,414.2297668457031,9.147140502929688,-323.68890380859375
90,4.485,0.271484375,-0.8955078125,-0.4072265625,0.11524110287427902,0.022952454164624214,0.09636568278074265,414.3128356933594,8.829864501953125,-323.56500244140625
91,4.535,0.27447509765625,-0.8794708251953125,-0.3134918212890625,0.12869858741760254,0.058886487036943436,0.13854190707206726,414.4950866699219,8.69464111328125,-323.30126953125
92,4.585,0.2591705322265625,-0.8861236572265625,-0.26300048828125,0.1601012498140335,-0.013258547522127628,0.003990214318037033,414.32818603515625,8.3011474609375,-322.99383544921875
93,4.635,0.2670440673828125,-0.862274169921875,-0.30670166015625,0.00986514799296856,-0.12786714732646942,-0.09296216815710068,414.4901123046875,7.9846649169921875,-323.05462646484375
94,4.685,0.2259521484375,-0.8936767578125,-0.4898681640625,-0.05831656977534294,-0.20941022038459778,-0.05806782841682434,414.041015625,8.088424682617188,-323.4443359375
95,4.734,0.207366943359375,-0.91461181640625,-0.53741455078125,0.17203114926815033,0.15426945686340332,-0.016822656616568565,413.8013610839844,8.40814208984375,-323.69219970703125
96,4.784,0.302642822265625,-0.8991546630859375,-0.2992095947265625,0.5480359196662903,0.11994131654500961,-0.0011760519118979573,414.082275390625,7.6634674072265625,-323.44873046875
97,4.834,0.311187744140625,-0.8771514892578125,-0.2516021728515625,0.7769958972930908,-0.25063514709472656,0.0070762853138148785,414.404296875,7.1142578125,-322.82330322265625
98,4.884,0.293304443359375,-0.82464599609375,-0.123016357421875,0.9423251748085022,-0.3716166913509369,-0.030073214322328568,413.86236572265625,5.8930511474609375,-322.26287841796875
99,4.934,0.329986572265625,-0.825408935546875,-0.20513916015625,0.49017077684402466,-0.5356796979904175,-0.037994254380464554,413.29888916015625,4.8268585205078125,-321.84259033203125
100,4.984,0.3834228515625,-0.761322021484375,-0.1494293212890625,1.2619431018829346,-1.2641791105270386,-0.1823575645685196,412.57000732421875,4.271209716796875,-321.7774658203125
101,5.033,0.131500244140625,-0.8861846923828125,-0.4806365966796875,2.346703052520752,-1.0027389526367188,0.6228662133216858,410.9492492675781,2.408935546875,-322.2405090332031
102,5.083,0.0261077880859375,-1.8444976806640625,-1.1607208251953125,2.099113702774048,0.6694374680519104,-0.22102372348308563,409.85443115234375,-0.954864501953125,-319.5138244628906
103,5.133,1.3130035400390625,-1.26898193359375,-0.7183837890625,8.757933616638184,1.3099567890167236,-0.6655428409576416,413.1622009277344,-4.4154815673828125,-314.575927734375
104,5.183,2.3869781494140625,0.7489776611328125,1.38311767578125,11.150132179260254,0.36102423071861267,-1.9384195804595947,416.0472717285156,-7.604949951171875,-296.872802734375
105,5.233,5.742919921875,3.6895294189453125,1.299957275390625,3.422891855239868,3.108170986175537,2.4298195838928223,419.72210693359375,-0.7464752197265625,-277.13177490234375
106,5.283,-3.458465576171875,4.21270751953125,1.0585174560546875,7.011420249938965,-0.8866091966629028,9.53259563446045,409.784912109375,-5.0860137939453125,-263.78692626953125
107,5.332,-7.7581787109375,-2.8389129638671875,-1.9649810791015625,-4.225406169891357,6.561235427856445,9.04931354522705,400.69476318359375,-23.226821899414062,-234.9274444580078
108,5.382,-0.923553466796875,-0.3301544189453125,3.3174591064453125,5.332490921020508,-2.850858211517334,-1.7457926273345947,374.27435302734375,-35.50811767578125,-237.17221069335938
109,5.432,0.1119384765625,1.137054443359375,-0.453948974609375,-1.7268463373184204,-1.1752310991287231,-2.2173261642456055,391.86871337890625,-24.463912963867188,-227.2408447265625
110,5.482,0.17822265625,0.3490447998046875,1.36871337890625,1.7046747207641602,-0.06303249299526215,0.23650601506233215,399.5450439453125,-21.918212890625,-229.72512817382812
111,5.532,-0.71722412109375,-0.1772308349609375,1.3177642822265625,-0.9725291728973389,-0.21697811782360077,-0.11118777096271515,398.099609375,-19.389694213867188,-225.27073669433594
112,5.582,-1.27947998046875,-0.141265869140625,0.8111724853515625,-0.6416846513748169,-0.35305553674697876,-1.1319057941436768,397.61279296875,-19.9464111328125,-227.51539611816406
113,5.631,-1.628448486328125,0.1659393310546875,0.959075927734375,-1.8536570072174072,-1.7092490196228027,-2.4457197189331055,398.019287109375,-16.698989868164062,-231.37255859375
114,5.681,-0.896759033203125,0.2683563232421875,0.2221832275390625,-2.7625505924224854,0.05711415410041809,-2.6968026161193848,400.359375,-13.188507080078125,-244.63693237304688
115,5.731,0.4622039794921875,0.0939483642578125,0.8368988037109375,-2.225968837738037,0.7838383316993713,-3.2657365798950195,402.4814453125,-8.579879760742188,-258.60595703125
116,5.781,0.91607666015625,-0.0965576171875,1.09735107421875,-2.846900224685669,0.9277150630950928,-1.733014464378357,406.9061279296875,-4.1845703125,-266.548828125
117,5.831,0.9867706298828125,-0.19769287109375,1.5332489013671875,-3.522866725921631,0.5082922577857971,-1.0318307876586914,408.571533203125,-4.125030517578125,-271.3474426269531
118,5.881,0.912750244140625,-0.3550567626953125,1.1575469970703125,-3.4727489948272705,-0.3616655170917511,-0.8839231133460999,410.57012939453125,-5.4045867919921875,-277.40850830078125
119,5.93,0.69866943359375,-0.387725830078125,0.9925384521484375,-2.5980496406555176,-1.2765895128250122,-0.5490434169769287,412.47943115234375,-5.9090728759765625,-284.0207214355469
120,5.98,0.459136962890625,-0.5037689208984375,0.5439300537109375,-2.65330171585083,-1.318015694618225,0.01751587726175785,413.21173095703125,-6.4121246337890625,-290.3421936035156
121,6.03,0.3308563232421875,-0.71624755859375,0.298004150390625,-2.3286643028259277,-1.242390513420105,0.22053582966327667,412.7425537109375,-6.9892425537109375,-296.4286193847656
122,6.08,0.4079437255859375,-0.8067169189453125,0.2397918701171875,-2.2765893936157227,-0.8594326972961426,0.2125154584646225,411.77069091796875,-7.20294189453125,-302.57598876953125
123,6.13,0.5514068603515625,-0.8646697998046875,0.0845489501953125,-3.750971794128418,0.4600946307182312,1.1230568885803223,410.90423583984375,-6.6223297119140625,-307.83935546875
124,6.18,0.4815673828125,-1.02630615234375,-0.0944061279296875,-4.293277263641357,1.1427680253982544,2.3160462379455566,409.0086669921875,-4.7657318115234375,-314.47552490234375
125,6.229,-0.0730438232421875,-1.076934814453125,-0.5408477783203125,-2.617701292037964,-0.13161155581474304,2.179518222808838,405.99139404296875,-1.8839263916015625,-320.79443359375
126,6.279,-0.076324462890625,-0.9373931884765625,-0.4265594482421875,-0.8529327511787415,0.9875467419624329,1.0719138383865356,403.2517395019531,-0.4802093505859375,-323.90008544921875
127,6.329,-0.1581573486328125,-0.8985595703125,-0.4356536865234375,-0.7856870889663696,0.27440333366394043,0.5380008816719055,402.593017578125,0.3948516845703125,-325.1463623046875
128,6.379,-0.1605072021484375,-0.8521575927734375,-0.4135284423828125,-0.6627257466316223,0.8386411666870117,0.07441138476133347,402.46319580078125,1.554779052734375,-326.33074951171875
129,6.429,-0.1725616455078125,-0.9273223876953125,-0.421234130859375,-0.8007020354270935,0.8330455422401428,0.3761451244354248,403.3453369140625,2.777679443359375,-327.3978271484375
130,6.479,-0.2354736328125,-1.0285186767578125,-0.3883056640625,-1.1808525323867798,0.6908729672431946,0.2645954489707947,404.34185791015625,4.229034423828125,-327.94696044921875
131,6.529,-0.2257080078125,-0.966644287109375,-0.5957489013671875,-0.5401633381843567,0.07841571420431137,-0.2721737325191498,404.93402099609375,6.10223388671875,-329.2551574707031
132,6.578,-0.2251434326171875,-0.9404296875,-0.4591522216796875,-0.05877836048603058,-0.1371525228023529,-0.26987648010253906,405.29864501953125,7.09161376953125,-329.6217346191406
133,6.628,-0.143951416015625,-0.8338775634765625,-0.48040771484375,0.005792907904833555,-0.1942341923713684,-0.5964964032173157,405.541015625,7.2356414794921875,-330.13909912109375
134,6.678,-0.0245819091796875,-0.77313232421875,-0.428131103515625,0.13332024216651917,-0.31043270230293274,-0.3771917521953583,405.25689697265625,7.6639251708984375,-329.759765625
135,6.728,0.0215606689453125,-0.807464599609375,-0.4035797119140625,-0.16472584009170532,-0.4871944189071655,-0.19753198325634003,404.957275390625,7.7670440673828125,-329.7705078125
136,6.778,-0.0620880126953125,-0.8979644775390625,-0.576812744140625,-0.20445114374160767,-0.18919788300991058,0.11210523545742035,404.4783935546875,8.079635620117188,-330.5743408203125
137,6.828,-0.0927886962890625,-0.949493408203125,-0.499176025390625,-0.41274282336235046,0.2274044007062912,0.051180895417928696,404.00250244140625,8.5474853515625,-330.8275146484375
138,6.877,-0.00201416015625,-0.7913970947265625,-0.60955810546875,-0.3612958788871765,0.36484214663505554,0.19568002223968506,404.53131103515625,9.275741577148438,-331.21923828125
139,6.927,-0.0024261474609375,-0.7987823486328125,-0.576873779296875,0.17827706038951874,0.08291352540254593,0.09943684190511703,405.08587646484375,9.219985961914062,-331.1219787597656
140,6.977,-0.0143890380859375,-0.8605804443359375,-0.513702392578125,0.17551855742931366,0.01565193012356758,-0.047921452671289444,405.11810302734375,8.939956665039062,-330.7542724609375
141,7.027,-0.0243377685546875,-0.8672332763671875,-0.5006103515625,-0.03965872898697853,0.08738790452480316,-0.0057257963344454765,404.9908447265625,8.829971313476562,-330.6785888671875
142,7.077,-0.0172576904296875,-0.8346405029296875,-0.5029449462890625,-0.040955688804388046,-0.03544454276561737,-0.006697051227092743,405.2273864746094,8.83294677734375,-330.7497253417969
143,7.127,-0.0770111083984375,-0.878173828125,-0.506134033203125,0.06772152334451675,-0.006602242588996887,0.04103398695588112,404.84979248046875,8.861251831054688,-330.98394775390625
144,7.176,-0.07000732421875,-0.83294677734375,-0.568115234375,-0.1974094808101654,0.18573684990406036,0.01041269302368164,405.298583984375,8.799163818359375,-330.5328063964844
145,7.226,-0.063323974609375,-0.84552001953125,-0.5394287109375,0.019904199987649918,0.18019773066043854,-0.08918074518442154,405.78533935546875,8.849166870117188,-330.95465087890625
146,7.276,-0.041900634765625,-0.8508148193359375,-0.4967803955078125,0.028127241879701614,0.07650862634181976,-0.03700382262468338,405.9390563964844,8.75006103515625,-330.75677490234375
147,7.326,-0.023406982421875,-0.8363037109375,-0.4949188232421875,-0.04558958858251572,0.07119588553905487,-0.03622724488377571,406.33917236328125,8.625228881835938,-330.80718994140625
148,7.376,-0.0219573974609375,-0.8368072509765625,-0.5006866455078125,-0.022938605397939682,0.02105308696627617,-0.0054517569951713085,406.41571044921875,8.844619750976562,-330.486328125
149,7.426,-0.0257720947265625,-0.8446502685546875,-0.520843505859375,-0.11495428532361984,-0.01555072981864214,-0.07330750674009323,406.6717529296875,8.9703369140625,-330.702392578125
150,7.475,-0.024688720703125,-0.8425140380859375,-0.532684326171875,-0.06771912425756454,-0.01630200818181038,-0.06828264892101288,406.43536376953125,9.184814453125,-330.6585693359375
151,7.525,-0.0389404296875,-0.852569580078125,-0.561767578125,-0.04366279020905495,-0.038414765149354935,0.008664860390126705,406.2685852050781,9.311019897460938,-330.49298095703125
152,7.575,-0.0251922607421875,-0.84521484375,-0.5516510009765625,0.05043894052505493,-0.04615737497806549,-0.06995165348052979,406.40655517578125,9.364273071289062,-330.8626708984375
153,7.625,-0.024444580078125,-0.8414154052734375,-0.54351806640625,0.10067015141248703,-0.1043676808476448,-0.0594598650932312,406.308349609375,9.152206420898438,-330.4615173339844
154,7.675,-0.028228759765625,-0.853912353515625,-0.537078857421875,0.09985149651765823,-0.08421554416418076,-0.09833215922117233,406.10467529296875,9.129104614257812,-330.7593994140625
155,7.725,-0.0060577392578125,-0.8327789306640625,-0.52435302734375,0.15826047956943512,-0.11507519334554672,-0.0497470498085022,406.17333984375,8.8109130859375,-330.6791076660156
156,7.774,-0.044647216796875,-0.861114501953125,-0.503082275390625,-0.02828436903655529,-0.03262611851096153,0.042690739035606384,406.07635498046875,8.718185424804688,-330.62908935546875
157,7.824,-0.0228271484375,-0.8494415283203125,-0.500213623046875,0.06494171172380447,-0.03894393518567085,-0.04814356192946434,405.96295166015625,8.760223388671875,-330.72845458984375
158,7.874,-0.00299072265625,-0.83941650390625,-0.512176513671875,0.00392869533970952,-0.059894759207963943,0.02779274806380272,406.01507568359375,8.63397216796875,-330.6846923828125
159,7.924,-0.0295867919921875,-0.8643035888671875,-0.4819488525390625,-0.005091431550681591,-0.0633733794093132,0.03777347877621651,405.8966064453125,8.620330810546875,-330.650146484375
160,7.974,-0.095428466796875,-0.92144775390625,-0.5355224609375,-0.17516569793224335,0.21700741350650787,-0.034994736313819885,405.43133544921875,8.422744750976562,-330.841796875
