index,time,acc x,acc y,acc z,gyro x,gyro y,gyro z,mag x,mag y,mag z
0,0,0.0359649658203125,-0.995635986328125,-0.084442138671875,-0.07288113236427307,-0.020539097487926483,-0.03357021138072014,423.40264892578125,-17.289657592773438,-290.04541015625
1,0.05,0.006866455078125,-0.9944305419921875,-0.110992431640625,-0.0026256104465574026,-0.07290057092905045,0.03909733518958092,423.2550048828125,-17.359466552734375,-289.93780517578125
2,0.1,0.01849365234375,-0.989837646484375,-0.0826263427734375,0.022711170837283134,0.03705229237675667,-0.02364540845155716,423.24822998046875,-17.331207275390625,-289.9783020019531
3,0.149,0.025299072265625,-0.9887237548828125,-0.07769775390625,-0.014317686669528484,0.027471838518977165,-0.009577259421348572,423.0909423828125,-17.319244384765625,-289.94921875
4,0.199,0.015838623046875,-0.9908447265625,-0.104034423828125,-0.02341211587190628,-0.006736465729773045,-0.004211523104459047,423.1885986328125,-17.399490356445312,-289.928955078125
5,0.249,0.0202484130859375,-0.99468994140625,-0.0903778076171875,-0.007605188991874456,0.038790006190538406,-0.01449958048760891,423.31976318359375,-17.255813598632812,-289.95458984375
6,0.299,0.02410888671875,-0.9982757568359375,-0.1143646240234375,-0.008593754842877388,-0.02485981024801731,0.0080296965315938,423.3677062988281,-17.195419311523438,-289.88238525390625
7,0.349,0.0201416015625,-0.9924163818359375,-0.089141845703125,0.01733291707932949,0.03497209772467613,-0.010272610932588577,423.1767883300781,-17.164199829101562,-289.84722900390625
8,0.399,0.0225830078125,-0.991180419921875,-0.08612060546875,-0.0026469158474355936,0.015485482290387154,-0.015170164406299591,423.1585388183594,-17.184097290039062,-290.07562255859375
9,0.448,0.0241241455078125,-0.989532470703125,-0.096466064453125,-0.011258780024945736,0.008406800217926502,-0.0028762139845639467,423.27130126953125,-17.4449462890625,-289.6894836425781
10,0.498,0.01873779296875,-0.99700927734375,-0.09356689453125,-0.01600639708340168,0.04531848058104515,-0.02063017711043358,423.2896728515625,-17.391555786132812,-289.84429931640625
11,0.548,0.02716064453125,-0.995758056640625,-0.0981597900390625,0.0030003173742443323,0.007787082809954882,0.001561944023706019,423.04803466796875,-17.080886840820312,-289.59588623046875
12,0.598,0.0243682861328125,-0.992156982421875,-0.095703125,0.0004689826746471226,0.022051239386200905,-0.0036597158759832382,423.2854309082031,-17.3489990234375,-289.85284423828125
13,0.648,0.02459716796875,-0.996856689453125,-0.1032867431640625,-0.011284079402685165,-0.001178448786959052,-0.005555886775255203,423.38348388671875,-17.326400756835938,-289.7374572753906
14,0.698,0.026397705078125,-0.9919586181640625,-0.0938720703125,0.015731291845440865,0.025776203721761703,-0.01296240370720625,423.26019287109375,-17.31280517578125,-289.79644775390625
15,0.747,0.0210723876953125,-0.99249267578125,-0.09503173828125,-0.002576608443632722,-0.01480770856142044,0.0049550775438547134,423.3017883300781,-17.289749145507812,-290.2796936035156
16,0.797,0.022216796875,-0.99822998046875,-0.100616455078125,0.006928479764610529,0.020077038556337357,-0.0026088326703757048,423.3012390136719,-17.254302978515625,-289.832275390625
17,0.847,0.02777099609375,-0.9939727783203125,-0.0969696044921875,0.005642971955239773,0.0348285548388958,-0.016511065885424614,423.1852722167969,-17.155746459960938,-290.080322265625
18,0.897,0.0278778076171875,-0.99420166015625,-0.10076904296875,-0.001600559800863266,-0.0012293151812627912,-0.0017353157745674253,423.37335205078125,-17.221328735351562,-290.22003173828125
19,0.947,0.0256500244140625,-0.9941558837890625,-0.083648681640625,0.02117372862994671,0.017076455056667328,-0.011874502524733543,423.3060302734375,-17.1165771484375,-289.94891357421875
20,0.997,0.02972412109375,-0.991424560546875,-0.09130859375,-0.02570216730237007,0.017438644543290138,-0.016637565568089485,423.14581298828125,-17.190048217773438,-290.0865783691406
21,1.046,0.0281524658203125,-0.9925537109375,-0.096160888671875,-0.007543137297034264,0.007792941760271788,0.010328537784516811,423.18328857421875,-17.100845336914062,-289.75323486328125
22,1.096,0.021392822265625,-0.9947509765625,-0.0977935791015625,-0.008363391272723675,0.04501621052622795,-0.010162089951336384,423.36651611328125,-17.056625366210938,-289.84893798828125
23,1.146,0.034698486328125,-0.994293212890625,-0.09857177734375,-0.008800948038697243,-0.004442152567207813,0.002386192325502634,423.3331298828125,-16.877227783203125,-289.56280517578125
24,1.196,0.0257415771484375,-0.991546630859375,-0.0901336669921875,0.025257686153054237,0.02142113633453846,-0.0015853798249736428,423.2785339355469,-17.106185913085938,-289.77642822265625
25,1.246,0.0227813720703125,-0.99176025390625,-0.0910186767578125,-0.01865464448928833,0.009839314967393875,0.0005403553950600326,423.07171630859375,-17.089187622070312,-289.57989501953125
26,1.296,0.0243988037109375,-0.993255615234375,-0.0849609375,0.005618204362690449,0.03773779049515724,0.0033838124945759773,423.1706848144531,-17.163681030273438,-289.7929382324219
27,1.345,0.033416748046875,-0.9927825927734375,-0.10052490234375,-0.01636965200304985,0.007668572477996349,-0.0005214469274505973,423.1706848144531,-17.163681030273438,-289.7929382324219
28,1.395,0.0205535888671875,-0.996429443359375,-0.1037750244140625,0.010338391177356243,0.006579605862498283,0.0017736653098836541,423.10076904296875,-17.081039428710938,-290.00421142578125
29,1.445,0.029998779296875,-0.9930877685546875,-0.0908355712890625,0.0007912251749075949,0.026493392884731293,-0.00640729907900095,423.06597900390625,-17.076950073242188,-289.54449462890625
30,1.495,0.02716064453125,-0.9916839599609375,-0.0971832275390625,-0.0015270565636456013,-0.007126352749764919,0.009968211874365807,423.2261047363281,-16.995803833007812,-289.7086181640625
31,1.545,0.0274810791015625,-0.994140625,-0.097442626953125,0.01239541731774807,0.02684865891933441,-0.007320763543248177,423.0280456542969,-17.155975341796875,-289.76409912109375
32,1.595,0.0263214111328125,-0.9909210205078125,-0.0886993408203125,-0.011085407808423042,0.0072954632341861725,-0.005161472596228123,423.2160339355469,-17.12420654296875,-289.756103515625
33,1.645,0.02569580078125,-0.9924468994140625,-0.09051513671875,0.013377324678003788,0.02605690062046051,0.0006343649583868682,423.10675048828125,-17.153076171875,-289.5830383300781
34,1.694,0.0267333984375,-0.9975738525390625,-0.106353759765625,-0.002350505907088518,-0.007672566920518875,-0.004066913388669491,423.16094970703125,-16.966323852539062,-289.60382080078125
35,1.744,0.0218048095703125,-0.9894561767578125,-0.094573974609375,0.01780536212027073,0.01842268370091915,-0.009307214990258217,423.3088073730469,-16.929397583007812,-289.66986083984375
36,1.794,0.0324554443359375,-0.993743896484375,-0.0826568603515625,-0.006792658474296331,-0.0033835461363196373,-0.001859685406088829,423.23748779296875,-17.147201538085938,-289.6092529296875
37,1.844,0.0233612060546875,-0.9941558837890625,-0.094024658203125,0.00138031633105129,0.015058844350278378,-0.00809361319988966,423.2373046875,-17.012298583984375,-289.6624755859375
38,1.894,0.0315399169921875,-0.994598388671875,-0.0971221923828125,-0.007026484236121178,-0.003370230318978429,-0.0011310444679111242,423.3256530761719,-17.28912353515625,-289.782470703125
39,1.944,0.020721435546875,-0.9969329833984375,-0.0880889892578125,0.0041100564412772655,-0.0012024171883240342,-0.005891711451113224,423.31689453125,-17.27276611328125,-289.49432373046875
40,1.993,0.031768798828125,-0.987945556640625,-0.0835418701171875,0.001526257605291903,0.016381902620196342,-0.004517253953963518,423.0792236328125,-17.14306640625,-289.7120361328125
41,2.043,0.0263824462890625,-0.9957733154296875,-0.0971527099609375,-0.0031875374261289835,-0.006687197368592024,0.0016666061710566282,423.1834716796875,-17.242416381835938,-289.4206848144531
42,2.093,0.029083251953125,-0.993896484375,-0.0890655517578125,-0.005605954211205244,0.0017835189355537295,-0.00914209894835949,423.00244140625,-17.138031005859375,-289.4806213378906
43,2.143,0.022613525390625,-0.993255615234375,-0.089569091796875,-0.0003225088003091514,0.00945235788822174,0.00663553224876523,423.0953063964844,-17.082565307617188,-289.4248352050781
44,2.193,0.0293121337890625,-0.9922943115234375,-0.086517333984375,0.005279184319078922,0.015835421159863472,-0.007743407040834427,423.1050109863281,-17.113922119140625,-289.455810546875
45,2.243,0.0317230224609375,-0.9919891357421875,-0.1000823974609375,-0.005210208240896463,-0.007215036079287529,0.005998237524181604,423.10772705078125,-17.0560302734375,-289.606689453125
46,2.292,0.0201416015625,-0.994720458984375,-0.09503173828125,-0.0023286680225282907,0.02352423407137394,0.004265851341187954,423.14306640625,-17.235031127929688,-289.29595947265625
47,2.342,0.027374267578125,-0.9969635009765625,-0.090362548828125,0.008555138483643532,0.013744041323661804,0.0004290352517273277,423.13092041015625,-16.948226928710938,-289.1150207519531
48,2.392,0.030487060546875,-0.993072509765625,-0.0913238525390625,0.013700632378458977,-0.006118612363934517,-0.004008057527244091,423.1314392089844,-16.953643798828125,-289.1305236816406
49,2.442,0.0271148681640625,-0.990203857421875,-0.0814971923828125,0.0173808541148901,0.011514975689351559,-0.0068389978259801865,423.05914306640625,-16.910614013671875,-289.2291259765625
50,2.492,0.027191162109375,-0.9911041259765625,-0.0776824951171875,-0.008440889418125153,0.04767883941531181,-0.010733071714639664,422.8922119140625,-16.673980712890625,-288.74334716796875
51,2.542,0.0314178466796875,-0.9963836669921875,-0.0970611572265625,-0.010963168926537037,0.018936406821012497,-0.005891178734600544,422.8916320800781,-16.807876586914062,-289.0403137207031
52,2.591,0.0268707275390625,-0.99322509765625,-0.0920562744140625,0.004030427895486355,0.040591366589069366,-0.00455879932269454,422.9842529296875,-16.8258056640625,-289.181640625
53,2.641,0.028472900390625,-0.99847412109375,-0.0956268310546875,-0.004163586068898439,0.0027457191608846188,0.0023212111555039883,423.1173095703125,-16.890243530273438,-289.256591796875
54,2.691,0.0305633544921875,-0.9932861328125,-0.0926055908203125,0.025955967605113983,0.048527855426073074,-0.016531838104128838,423.1831359863281,-16.824966430664062,-289.0700988769531
55,2.741,0.027923583984375,-0.997406005859375,-0.088836669921875,-0.00723367789760232,-0.002880475018173456,0.005441637244075537,422.998291015625,-16.900634765625,-288.73583984375
56,2.791,0.032928466796875,-0.9940185546875,-0.0939788818359375,0.02388642355799675,0.08414816856384277,-0.029515281319618225,422.7559509277344,-16.940109252929688,-288.8587341308594
57,2.841,0.03704833984375,-0.9915313720703125,-0.0803375244140625,0.011306717060506344,0.006612895056605339,0.00686269998550415,423.0121765136719,-16.85260009765625,-288.626220703125
58,2.89,0.0240631103515625,-0.991119384765625,-0.074737548828125,-0.00509862182661891,0.021323930472135544,-0.012148807756602764,422.951416015625,-16.521377563476562,-288.373291015625
59,2.94,0.0395660400390625,-0.9933013916015625,-0.096710205078125,-0.003766508772969246,0.0246622022241354,0.002007490722462535,423.032470703125,-16.74835205078125,-288.7119140625
60,2.99,0.027862548828125,-0.99505615234375,-0.0871429443359375,-0.0013635384384542704,0.04982028529047966,-0.013909157365560532,423.17431640625,-16.833053588867188,-288.6226806640625
61,3.04,0.0372314453125,-0.9947662353515625,-0.0827178955078125,0.00373028963804245,0.006884004920721054,0.00703926756978035,423.0625,-16.585678100585938,-288.60687255859375
62,3.09,0.0286102294921875,-0.993682861328125,-0.0850067138671875,-0.0027920580469071865,0.040048349648714066,0.0006703176186420023,423.19097900390625,-16.69622802734375,-288.36529541015625
63,3.14,0.0427703857421875,-0.9934234619140625,-0.0919036865234375,-0.020852018147706985,0.01967170648276806,-0.01275654137134552,423.1590576171875,-16.88214111328125,-288.34814453125
64,3.189,0.02484130859375,-0.9964599609375,-0.085357666015625,-0.0011057445080950856,-0.0002937466779258102,0.010754909366369247,423.0061340332031,-16.504226684570312,-288.45843505859375
65,3.239,0.0355987548828125,-0.9938812255859375,-0.086151123046875,-0.00890694186091423,0.03388126939535141,-0.006344448775053024,422.95654296875,-16.790542602539062,-288.48602294921875
66,3.289,0.035980224609375,-0.9969329833984375,-0.089874267578125,-0.009347694925963879,-0.02600070834159851,0.016393354162573814,422.9663391113281,-16.75408935546875,-288.55950927734375
67,3.339,0.0266571044921875,-0.991912841796875,-0.0884552001953125,0.003989148885011673,0.05272499471902847,-0.013551761396229267,423.16558837890625,-16.952880859375,-288.44189453125
68,3.389,0.040130615234375,-0.991302490234375,-0.0826873779296875,-0.008718390017747879,-0.0007286408799700439,0.008117581717669964,423.09405517578125,-16.9573974609375,-288.14532470703125
69,3.439,0.0337982177734375,-0.9970703125,-0.0915679931640625,-0.013545369729399681,-0.0015227955300360918,-0.012680375017225742,423.0735778808594,-16.897216796875,-287.89892578125
70,3.488,0.03155517578125,-0.9931793212890625,-0.090911865234375,-0.004602741450071335,0.007002782076597214,0.010776747949421406,423.10546875,-16.942626953125,-288.16656494140625
71,3.538,0.026611328125,-0.99749755859375,-0.0825653076171875,-0.003706853836774826,0.031244205310940742,0.0013819142477586865,423.0792236328125,-16.92572021484375,-288.40313720703125
72,3.588,0.0433197021484375,-0.99530029296875,-0.101776123046875,-0.0046514770947396755,-0.016518788412213326,-0.0003091930120717734,423.06414794921875,-17.039016723632812,-288.22320556640625
73,3.638,0.0207977294921875,-0.9957275390625,-0.09173583984375,0.01251259632408619,0.018614429980516434,0.0015270565636456013,422.96234130859375,-17.068954467773438,-288.0958251953125
74,3.688,0.0322113037109375,-0.9900970458984375,-0.0731048583984375,0.0017803232185542583,0.005109540652483702,0.010558102279901505,423.02606201171875,-17.101089477539062,-288.00823974609375
75,3.738,0.0326690673828125,-0.9924163818359375,-0.084136962890625,-0.006454969756305218,0.025979934260249138,-0.006959106307476759,423.03436279296875,-16.898406982421875,-288.2505798339844
76,3.787,0.0383453369140625,-0.9931640625,-0.092987060546875,-0.020020313560962677,0.007496532052755356,-0.003385676769539714,423.193603515625,-16.830352783203125,-288.0740966796875
77,3.837,0.0246734619140625,-0.998931884765625,-0.0998382568359375,-0.0020940436515957117,0.0035289546940475702,0.00640729907900095,423.1658935546875,-16.912185668945312,-288.06597900390625
78,3.887,0.0345001220703125,-0.9919586181640625,-0.0855712890625,0.003177950158715248,0.005782521795481443,0.0008096009842120111,422.9858093261719,-17.129898071289062,-288.1104736328125
79,3.937,0.0298919677734375,-0.9929351806640625,-0.0833892822265625,0.006423011887818575,0.0030304109677672386,0.00657614367082715,423.1031494140625,-16.98028564453125,-288.30596923828125
80,3.987,0.0264739990234375,-0.990325927734375,-0.0834503173828125,-0.005871737375855446,0.04065448418259621,-0.012746155261993408,423.0216064453125,-17.161697387695312,-288.0614929199219
81,4.037,0.03228759765625,-0.994781494140625,-0.087249755859375,-0.012646286748349667,0.020441625267267227,-0.006624879315495491,422.994384765625,-16.927566528320312,-288.00518798828125
82,4.087,0.0406951904296875,-0.992218017578125,-0.0977935791015625,-0.0075998627580702305,0.037766553461551666,-0.019991017878055573,423.12628173828125,-17.145965576171875,-288.3708801269531
83,4.136,0.0328521728515625,-0.9930572509765625,-0.092620849609375,0.002192580606788397,0.04169737920165062,0.003135872073471546,423.1335144042969,-16.956161499023438,-288.1800231933594
84,4.186,0.0406951904296875,-0.99859619140625,-0.095184326171875,-0.005097290500998497,0.028311798349022865,-0.0011478224769234657,423.06134033203125,-16.934310913085938,-287.9681396484375
85,4.236,0.03369140625,-0.9919891357421875,-0.082733154296875,0.008534099906682968,0.012952283956110477,-0.0011768508702516556,423.19976806640625,-17.01116943359375,-287.61553955078125
86,4.286,0.028656005859375,-0.9960784912109375,-0.0892486572265625,0.009535448625683784,0.03284769505262375,-0.014753113500773907,423.1734619140625,-16.979354858398438,-287.8453063964844
87,4.336,0.035308837890625,-0.9878387451171875,-0.0709075927734375,-0.004732969682663679,0.04881627485156059,-0.006340187508612871,423.08551025390625,-16.923675537109375,-287.6212158203125
88,4.386,0.0358734130859375,-1.0009765625,-0.106781005859375,-0.016228238120675087,-0.012024172581732273,0.008423046208918095,423.13165283203125,-17.05706787109375,-287.8260803222656
89,4.435,0.03240966796875,-0.9932708740234375,-0.0901031494140625,0.003805657150223851,0.059902481734752655,-0.009879262186586857,423.11944580078125,-17.0531005859375,-287.8841552734375
90,4.485,0.03619384765625,-0.9921722412109375,-0.0784149169921875,0.024631043896079063,0.028653748333454132,0.015587748028337955,423.09991455078125,-17.219619750976562,-287.91375732421875
91,4.535,0.034210205078125,-0.988800048828125,-0.0791778564453125,0.005711948033422232,0.02009461633861065,-0.006051767151802778,423.0419616699219,-17.089950561523438,-287.5255126953125
92,4.585,0.0378570556640625,-0.99285888671875,-0.0908203125,-0.0009507485083304346,0.00857271533459425,0.004021373111754656,423.1081848144531,-16.87237548828125,-287.39324951171875
93,4.635,0.0318756103515625,-0.992950439453125,-0.087158203125,-0.012086756527423859,-0.005072256550192833,0.0160700473934412,422.9439697265625,-16.939926147460938,-287.27227783203125
94,4.685,0.0372314453125,-1.0021514892578125,-0.1000213623046875,-0.0057321880012750626,-0.038783080875873566,0.007173490710556507,422.97125244140625,-16.904891967773438,-287.4459228515625
95,4.734,0.0352020263671875,-0.991790771484375,-0.0913848876953125,0.02606009691953659,0.01612037979066372,-0.003971838392317295,423.068115234375,-16.785369873046875,-287.53302001953125
96,4.784,0.0323638916015625,-0.9891204833984375,-0.0713043212890625,0.0041542649269104,0.003462641965597868,0.007132744416594505,422.8518371582031,-16.903900146484375,-287.07061767578125
97,4.834,0.0306854248046875,-0.9927978515625,-0.0811767578125,-0.004102067090570927,0.008698150515556335,-0.0006735134520567954,422.89605712890625,-16.857925415039062,-287.24810791015625
98,4.884,0.037567138671875,-0.99285888671875,-0.091033935546875,-0.004829642828553915,-0.006131395697593689,-0.00007004113285802305,423.031005859375,-17.003128051757812,-287.220458984375
99,4.934,0.0293426513671875,-0.993438720703125,-0.0877227783203125,-0.0017614146927371621,-0.003743072971701622,-0.0005667206714861095,422.9444580078125,-16.840576171875,-287.73736572265625
100,4.984,0.033172607421875,-0.9978179931640625,-0.086944580078125,-0.007783088367432356,-0.0019313243683427572,0.0036040558479726315,423.09002685546875,-17.046157836914062,-287.5485534667969
101,5.033,0.0351715087890625,-0.994232177734375,-0.087310791015625,0.0043923514895141125,0.0034530546981841326,-0.003096457337960601,422.87139892578125,-17.083602905273438,-287.3067932128906
102,5.083,0.0296173095703125,-0.99676513671875,-0.0832977294921875,0.0023675502743571997,-0.030823159962892532,0.01065264455974102,422.9493408203125,-17.040679931640625,-287.49578857421875
103,5.133,0.033294677734375,-0.990997314453125,-0.0828399658203125,0.0046999468468129635,0.0319608636200428,-0.016268452629446983,422.78076171875,-16.915557861328125,-287.24395751953125
104,5.183,0.033355712890625,-0.9922943115234375,-0.083404541015625,-0.014457502402365208,-0.013788782991468906,0.0067902617156505585,422.903564453125,-16.840286254882812,-287.61273193359375
105,5.233,0.0323028564453125,-0.99444580078125,-0.089691162109375,-0.006402771919965744,0.004984105937182903,0.0004106594424229115,422.91656494140625,-16.97552490234375,-287.3787536621094
106,5.283,0.0367279052734375,-0.9959259033203125,-0.0855712890625,-0.001219727797433734,0.017074590548872948,-0.012624449096620083,422.7862548828125,-16.817230224609375,-287.53790283203125
107,5.332,0.021087646484375,-0.9917144775390625,-0.08831787109375,-0.009021724574267864,0.0033396040089428425,0.011521100997924805,422.966552734375,-17.01312255859375,-287.355712890625
108,5.382,0.0430145263671875,-0.998321533203125,-0.084136962890625,0.00660463934764266,0.02527126856148243,-0.014825818128883839,422.7322998046875,-16.842910766601562,-287.3526916503906
109,5.432,0.03033447265625,-0.9933929443359375,-0.0922393798828125,0.0057223341427743435,-0.027711255475878716,0.019170232117176056,422.4869079589844,-16.789108276367188,-287.2153625488281
110,5.482,0.0327301025390625,-0.9919891357421875,-0.076080322265625,-0.0049319081008434296,0.021456023678183556,-0.012093947269022465,422.5501403808594,-16.812179565429688,-287.30670166015625
111,5.532,0.0323028564453125,-0.9967193603515625,-0.0869293212890625,-0.0008839031797833741,-0.03356701508164406,0.008474444970488548,422.5976867675781,-16.957931518554688,-287.323974609375
112,5.582,0.0322113037109375,-0.996429443359375,-0.0840911865234375,0.003924167715013027,0.018443455919623375,-0.004220843780785799,422.7587585449219,-16.753814697265625,-287.5118408203125
113,5.631,0.02972412109375,-0.994415283203125,-0.075958251953125,0.011772236786782742,-0.02153218910098076,0.004581702407449484,422.86163330078125,-17.00531005859375,-287.48114013671875
114,5.681,0.032257080078125,-0.9962158203125,-0.090423583984375,0.005170261021703482,-0.00732422573491931,-0.008141017518937588,422.706787109375,-16.87127685546875,-287.30950927734375
115,5.731,0.0297088623046875,-0.9935455322265625,-0.0823516845703125,-0.005855758674442768,-0.003008040366694331,0.008100803010165691,422.62628173828125,-16.930633544921875,-287.112548828125
116,5.781,0.024261474609375,-0.9954833984375,-0.0807952880859375,-0.008657137863337994,0.009977798908948898,0.0009675264009274542,422.78289794921875,-17.089981079101562,-287.253662109375
117,5.831,0.0410614013671875,-0.9950103759765625,-0.086669921875,0.01962190493941307,0.006973753683269024,-0.008298410102725029,422.77130126953125,-16.88323974609375,-287.45367431640625
118,5.881,0.0287933349609375,-0.990234375,-0.080169677734375,-0.00006231796578504145,-0.02328295260667801,0.0022533005103468895,422.7476806640625,-16.952072143554688,-287.3095703125
119,5.93,0.0208892822265625,-0.994110107421875,-0.0765838623046875,-0.009577792137861252,0.055082425475120544,-0.009826797991991043,422.7833251953125,-17.075241088867188,-287.68402099609375
120,5.98,0.0485076904296875,-0.995635986328125,-0.0826568603515625,-0.013903564773499966,-0.018805645406246185,0.007003048434853554,422.578857421875,-17.212173461914062,-287.42596435546875
121,6.03,0.01959228515625,-0.9981842041015625,-0.093994140625,0.002011485630646348,-0.016327841207385063,0.0037894118577241898,422.50677490234375,-16.852279663085938,-287.58001708984375
122,6.08,0.0316925048828125,-0.991546630859375,-0.088134765625,0.006310360040515661,0.033357422798871994,-0.005129780620336533,422.6235046386719,-16.739044189453125,-287.1360778808594
123,6.13,0.03521728515625,-0.994659423828125,-0.0745697021484375,-0.01323910616338253,-0.016585901379585266,0.01050190906971693,422.4740905761719,-16.931015014648438,-287.4422607421875
124,6.18,0.028961181640625,-0.9940032958984375,-0.087677001953125,0.00939030572772026,0.007573231123387814,-0.007956726476550102,422.50018310546875,-16.760650634765625,-287.45318603515625
125,6.229,0.031280517578125,-0.9889068603515625,-0.0635833740234375,-0.010210826061666012,-0.028011394664645195,0.007400658447295427,422.70941162109375,-16.998199462890625,-287.3955078125
126,6.279,0.0227813720703125,-0.9979248046875,-0.0932159423828125,-0.0288793183863163,0.006682670209556818,0.009154615923762321,422.78533935546875,-16.991851806640625,-287.4702453613281
127,6.329,0.038421630859375,-1.0012664794921875,-0.08636474609375,-0.003991812001913786,0.0132686672732234,0.0001691107318038121,422.53619384765625,-16.967864990234375,-287.8072204589844
128,6.379,0.030181884765625,-0.9950714111328125,-0.0897216796875,0.012705675326287746,-0.011327222920954227,-0.002653839997947216,422.7523193359375,-17.156509399414062,-287.4600830078125
129,6.429,0.032470703125,-0.9883270263671875,-0.076385498046875,-0.006287190597504377,0.001386175281368196,-0.00875301193445921,422.73248291015625,-17.00390625,-287.33477783203125
130,6.479,0.029541015625,-0.997314453125,-0.08001708984375,-0.01173149049282074,-0.011986621655523777,0.003456783015280962,422.7269287109375,-16.875579833984375,-287.289794921875
131,6.529,0.030242919921875,-0.99273681640625,-0.0917205810546875,0.0022503710351884365,-0.0034874093253165483,0.0023393207229673862,422.9095458984375,-17.044967651367188,-287.319580078125
132,6.578,0.0306243896484375,-0.9945526123046875,-0.080780029296875,-0.012741894461214542,-0.0041699777357280254,0.0026823359075933695,422.8390197753906,-16.94561767578125,-287.77508544921875
133,6.628,0.0352020263671875,-0.993194580078125,-0.084197998046875,0.007939149625599384,0.016442356631159782,-0.011353588663041592,422.74322509765625,-16.825668334960938,-287.55364990234375
134,6.678,0.025909423828125,-0.99188232421875,-0.0789031982421875,-0.016140621155500412,-0.019153986126184464,0.0032021848019212484,422.5884704589844,-16.851303100585938,-287.2449035644531
135,6.728,0.034881591796875,-0.995758056640625,-0.090972900390625,-0.006081061903387308,0.02033376693725586,-0.013287842273712158,422.63165283203125,-16.853591918945312,-287.0572509765625
136,6.778,0.0284423828125,-0.9942779541015625,-0.0873260498046875,0.008262990042567253,-0.02172633446753025,0.01739710010588169,422.61688232421875,-16.870834350585938,-287.38519287109375
137,6.828,0.029754638671875,-0.9951324462890625,-0.0875396728515625,-0.003427221905440092,0.027244936674833298,0.0010239854454994202,422.6831970214844,-16.9920654296875,-287.25848388671875
138,6.877,0.038970947265625,-0.9939727783203125,-0.07733154296875,-0.00026498452643863857,-0.01859472319483757,-0.002017344580963254,422.59320068359375,-17.153701782226562,-287.5384521484375
139,6.927,0.0208740234375,-0.992462158203125,-0.08831787109375,-0.009217467159032822,0.008378570899367332,0.0009166600648313761,422.533203125,-16.558502197265625,-287.32421875
140,6.977,0.032623291015625,-0.9953155517578125,-0.0820770263671875,-0.016935041174292564,0.001892175991088152,-0.0049460227601230145,422.2860107421875,-16.852493286132812,-287.54803466796875
141,7.027,0.0320892333984375,-0.9991455078125,-0.1000823974609375,0.01008033100515604,-0.0037028591614216566,0.0010599381057545543,422.50274658203125,-16.66650390625,-287.36126708984375
142,7.077,0.0330963134765625,-0.9901123046875,-0.0840911865234375,0.014398912899196148,0.011292069219052792,-0.0057287258096039295,422.4467468261719,-16.6995849609375,-287.1630859375
143,7.127,0.022003173828125,-0.99114990234375,-0.0688018798828125,-0.008167915046215057,-0.006981743033975363,0.005901831202208996,422.67352294921875,-16.872512817382812,-287.24493408203125
144,7.176,0.03570556640625,-0.9911346435546875,-0.0809478759765625,-0.012380503118038177,0.028931783512234688,0.006733004003763199,422.4599609375,-17.008895874023438,-287.67803955078125
145,7.226,0.0270233154296875,-0.9944000244140625,-0.0812225341796875,-0.021222731098532677,-0.026079537346959114,0.015362710691988468,422.68768310546875,-16.983688354492188,-287.2591552734375
146,7.276,0.017333984375,-0.998779296875,-0.093719482421875,-0.028388231992721558,0.05693918094038963,-0.009762882255017757,422.49609375,-16.908615112304688,-287.441650390625
147,7.326,0.0457763671875,-0.9892120361328125,-0.0841217041015625,0.009013468399643898,-0.03561338782310486,-0.010262757539749146,422.3197021484375,-16.7803955078125,-287.3822021484375
148,7.376,0.01324462890625,-0.9973907470703125,-0.10369873046875,-0.04387477785348892,-0.04893292114138603,0.014147777110338211,422.373779296875,-16.886032104492188,-287.7799072265625
149,7.426,0.045318603515625,-1.0032196044921875,-0.1128082275390625,0.046059902757406235,0.09115627408027649,-0.03387594223022461,422.5208740234375,-16.9251708984375,-287.6312561035156
150,7.475,0.025848388671875,-0.9856719970703125,-0.0578765869140625,0.019724436104297638,-0.0637105330824852,0.02750086598098278,422.49139404296875,-16.794265747070312,-287.3221435546875
151,7.525,0.0204925537109375,-0.995025634765625,-0.0904998779296875,-0.013607421889901161,0.05390903726220131,-0.032035429030656815,422.39434814453125,-16.719879150390625,-287.28375244140625
152,7.575,0.040008544921875,-0.988677978515625,-0.0639495849609375,0.007950867526233196,-0.012574647553265095,0.005093828309327364,422.3752746582031,-16.66876220703125,-287.34234619140625
153,7.625,0.022613525390625,-0.9979705810546875,-0.1013946533203125,-0.008449144661426544,0.007232346571981907,-0.011602060869336128,422.616455078125,-16.659957885742188,-287.229736328125
154,7.675,0.030303955078125,-0.9934234619140625,-0.0854949951171875,-0.0008250473183579743,-0.0009840379934757948,0.0055803875438869,422.54937744140625,-16.681594848632812,-287.3417663574219
155,7.725,0.0302581787109375,-0.99700927734375,-0.0926971435546875,0.0015211976133286953,0.005410744342952967,0.0030035129748284817,422.499267578125,-16.715499877929688,-287.002685546875
156,7.774,0.035400390625,-0.9932861328125,-0.0836181640625,0.011632154695689678,0.004574511665850878,-0.006631537340581417,422.4853515625,-16.77642822265625,-287.3023986816406
157,7.824,0.023162841796875,-0.9947509765625,-0.07635498046875,0.004281297791749239,-0.012749883346259594,0.005784119479358196,422.64093017578125,-16.718460083007812,-287.04998779296875
158,7.874,0.03460693359375,-0.9914093017578125,-0.091217041015625,-0.006047772243618965,0.020386498421430588,-0.02556874230504036,422.53790283203125,-16.755050659179688,-287.1492614746094
159,7.924,0.0323028564453125,-0.9945526123046875,-0.0771484375,-0.005511411931365728,-0.019806994125247,0.014069213531911373,422.49591064453125,-16.670303344726562,-287.21051025390625
160,7.974,0.0204315185546875,-0.995819091796875,-0.097198486328125,0.0038602519780397415,0.04289207234978676,-0.006659234408289194,422.49249267578125,-16.757614135742188,-287.16424560546875
161,8.024,0.0443572998046875,-0.995697021484375,-0.0756988525390625,0.0020245350897312164,-0.015975505113601685,0.00039734362508170307,422.3826904296875,-16.744476318359375,-287.0190734863281
162,8.073,0.0298919677734375,-0.9934234619140625,-0.09051513671875,0.00791677925735712,-0.008695220574736595,-0.007891745306551456,422.39056396484375,-16.5206298828125,-287.49273681640625
163,8.123,0.0262603759765625,-0.995147705078125,-0.076416015625,0.016168050467967987,-0.00042450788896530867,0.0046842340379953384,422.5965576171875,-16.67608642578125,-287.23883056640625
164,8.173,0.0344085693359375,-0.9893798828125,-0.0753021240234375,-0.003973968792706728,0.03251666575670242,-0.010411628521978855,422.4981994628906,-16.716400146484375,-287.30230712890625
165,8.223,0.031280517578125,-0.996795654296875,-0.0870513916015625,-0.025021197274327278,-0.03514786809682846,0.0016460998449474573,422.465087890625,-16.5980224609375,-287.08612060546875
166,8.273,0.0276947021484375,-0.9959716796875,-0.097869873046875,0.004459196701645851,0.01085877325385809,-0.007370298262685537,422.45556640625,-16.726699829101562,-287.13470458984375
167,8.323,0.0350189208984375,-0.9984130859375,-0.0778045654296875,-0.0021766014397144318,-0.006711698602885008,0.002317482838407159,422.464599609375,-16.645797729492188,-287.1476745605469
168,8.372,0.0296478271484375,-0.9937896728515625,-0.0953216552734375,0.006893858779221773,0.00974663719534874,-0.001961684552952647,422.516845703125,-16.58685302734375,-287.07037353515625
169,8.422,0.036712646484375,-0.995208740234375,-0.0829925537109375,0.0033888723701238632,0.023433687165379524,-0.010576478205621243,422.42669677734375,-16.812271118164062,-287.5015869140625
170,8.472,0.03717041015625,-0.996246337890625,-0.0865631103515625,0.0041675809770822525,0.011575696058571339,-0.01064891554415226,422.23431396484375,-16.676925659179688,-287.7841796875
171,8.522,0.03277587890625,-0.987457275390625,-0.05712890625,0.0059995693154633045,-0.016214655712246895,-0.011499263346195221,422.28863525390625,-16.51300048828125,-287.14874267578125
172,8.572,0.023223876953125,-0.9893646240234375,-0.0854034423828125,-0.0313001312315464,0.010789263993501663,-0.006937001831829548,422.40020751953125,-16.445205688476562,-287.1372375488281
173,8.622,0.0407257080078125,-0.9947357177734375,-0.079345703125,-0.029048163443803787,-0.02539617009460926,0.009423595853149891,422.5679626464844,-16.30828857421875,-287.3324279785156
174,8.671,0.0266571044921875,-1.00177001953125,-0.110198974609375,-0.027171699330210686,-0.019818978384137154,0.007626760751008987,422.4898681640625,-16.589065551757812,-287.5738830566406
175,8.721,0.0352935791015625,-0.9920806884765625,-0.0811004638671875,0.01678137667477131,0.03417554870247841,-0.014761901460587978,422.4254150390625,-16.493057250976562,-287.34857177734375
176,8.771,0.02947998046875,-0.9987030029296875,-0.0970458984375,-0.018614696338772774,-0.04887380078434944,0.021192369982600212,422.64166259765625,-16.640228271484375,-287.50750732421875
177,8.821,0.0291900634765625,-0.9907989501953125,-0.082000732421875,0.02269039861857891,0.030356042087078094,-0.013035907410085201,422.59332275390625,-16.743789672851562,-287.3431701660156
178,8.871,0.0361480712890625,-0.99114990234375,-0.073516845703125,-0.0035084483679383993,-0.02726038359105587,0.011288873851299286,422.6083984375,-16.716339111328125,-287.15753173828125
179,8.921,0.0272369384765625,-0.9947357177734375,-0.087158203125,0.00688959751278162,0.018070613965392113,-0.006340453866869211,422.6300048828125,-16.73382568359375,-287.445556640625
180,8.97,0.0378570556640625,-0.9936065673828125,-0.0804290771484375,-0.019763851538300514,-0.019654128700494766,0.0017584852175787091,422.488037109375,-16.868118286132812,-287.2766418457031
181,9.02,0.0310516357421875,-0.9994049072265625,-0.0878753662109375,-0.004738030023872852,-0.009778328239917755,-0.008836900815367699,422.68017578125,-16.634872436523438,-287.4764099121094
182,9.07,0.030670166015625,-0.9939117431640625,-0.0905303955078125,0.009534915909171104,0.02502891980111599,0.0001102548703784123,422.7745361328125,-16.796142578125,-287.41302490234375
183,9.12,0.0359039306640625,-0.9951171875,-0.079132080078125,0.002007490722462535,0.0028453213162720203,-0.016115587204694748,422.68212890625,-16.547576904296875,-287.42041015625
184,9.17,0.0316619873046875,-0.99420166015625,-0.0953826904296875,0.005558017175644636,-0.02339773438870907,-0.0019297265680506825,422.8826904296875,-16.651077270507812,-287.2890930175781
185,9.22,0.03375244140625,-0.993408203125,-0.0756378173828125,0.00968858040869236,0.016515327617526054,-0.015851134434342384,422.7154541015625,-16.777557373046875,-287.6944580078125
186,9.27,0.0335845947265625,-0.9897308349609375,-0.0784759521484375,-0.008979380130767822,-0.01110618095844984,-0.008678176440298557,422.5384521484375,-16.587066650390625,-287.5556335449219
187,9.319,0.0308837890625,-0.99786376953125,-0.085479736328125,-0.014371749013662338,-0.006819290108978748,0.0004980111261829734,422.59552001953125,-16.532913208007812,-287.627685546875
188,9.369,0.0383453369140625,-0.994964599609375,-0.0890960693359375,-0.004278634674847126,-0.0010897654574364424,-0.007339405361562967,422.67498779296875,-16.537948608398438,-287.529296875
189,9.419,0.0240020751953125,-0.9968109130859375,-0.0841827392578125,-0.004171309061348438,0.01113174669444561,0.008006793446838856,422.5831298828125,-16.646759033203125,-287.58087158203125
190,9.469,0.043670654296875,-0.9921112060546875,-0.087371826171875,0.007953263819217682,-0.0008993495139293373,-0.006345780100673437,422.64862060546875,-16.510284423828125,-287.71112060546875
191,9.519,0.0298004150390625,-0.9955291748046875,-0.085418701171875,-0.011759720742702484,-0.019538015127182007,0.0062669506296515465,422.6552734375,-16.616134643554688,-287.53192138671875
192,9.569,0.0322418212890625,-0.9930267333984375,-0.0872650146484375,0.0033872744534164667,0.02503238245844841,-0.013950436376035213,422.4317626953125,-16.376205444335938,-287.6865539550781
193,9.618,0.030181884765625,-0.9939117431640625,-0.0750274658203125,0.0025827335193753242,-0.009165268391370773,0.007257646415382624,422.64398193359375,-16.635574340820312,-287.67486572265625
194,9.668,0.033966064453125,-0.9949798583984375,-0.0937347412109375,0.001279116258956492,-0.006377205718308687,-0.0008729841792955995,422.7402648925781,-16.698745727539062,-287.9222717285156
195,9.718,0.037506103515625,-0.9941864013671875,-0.084869384765625,-0.007664577569812536,0.009223858825862408,-0.006176403257995844,422.6876220703125,-16.693450927734375,-287.6253356933594
196,9.768,0.0338287353515625,-0.995269775390625,-0.084503173828125,0.0009406284661963582,-0.01149686612188816,0.0029611687641590834,422.9576110839844,-16.622909545898438,-288.0360107421875
197,9.818,0.0364227294921875,-0.994354248046875,-0.086883544921875,-0.0047028763219714165,0.01071229949593544,-0.005803028121590614,422.72406005859375,-16.601089477539062,-287.58984375
198,9.868,0.030120849609375,-0.9934539794921875,-0.08056640625,0.0008974852971732616,-0.007193997036665678,0.002859169617295265,422.79583740234375,-16.386489868164062,-287.8675842285156
199,9.917,0.0331268310546875,-0.99334716796875,-0.0823516845703125,-0.005117264110594988,-0.005788114387542009,-0.003192064817994833,422.66387939453125,-16.5147705078125,-287.6722412109375
200,9.967,0.034423828125,-0.9946746826171875,-0.09173583984375,0.000532365869730711,0.013677462935447693,-0.009067264385521412,422.672607421875,-16.587677001953125,-287.54949951171875
201,10.017,0.0353546142578125,-0.992462158203125,-0.0793304443359375,-0.005203284323215485,-0.023696541786193848,0.005853095557540655,422.8125305175781,-16.774948120117188,-287.38055419921875
202,10.067,0.0329742431640625,-0.9958343505859375,-0.0862274169921875,0.0038956720381975174,0.03819718584418297,-0.016213323920965195,422.989501953125,-16.856155395507812,-287.46051025390625
203,10.117,0.033294677734375,-0.9920196533203125,-0.0840911865234375,-0.01185106672346592,-0.019576365128159523,0.011231615208089352,422.51922607421875,-16.7740478515625,-287.6157531738281
204,10.167,0.0371246337890625,-0.9972381591796875,-0.093780517578125,0.008421714417636395,0.008791893720626831,-0.009900035336613655,422.71234130859375,-16.636932373046875,-287.4809875488281
205,10.216,0.03564453125,-0.99267578125,-0.085662841796875,-0.004474643152207136,-0.011110175400972366,0.012711800634860992,422.742919921875,-16.6527099609375,-287.3389587402344
206,10.266,0.029571533203125,-0.996307373046875,-0.085845947265625,-0.010978614911437035,-0.005095159634947777,0.006058158818632364,422.6272888183594,-16.659317016601562,-287.50213623046875
207,10.316,0.0391387939453125,-0.9982452392578125,-0.0959014892578125,0.015459383837878704,0.022538598626852036,-0.0046445527113974094,422.66119384765625,-16.699493408203125,-287.2974853515625
208,10.366,0.036041259765625,-0.9914398193359375,-0.0763397216796875,0.019052786752581596,-0.01836116425693035,0.004446680191904306,422.6845703125,-16.727981567382812,-287.2301940917969
209,10.416,0.0303497314453125,-0.990966796875,-0.07440185546875,-0.007965780794620514,0.021348431706428528,-0.0005781722720712423,422.46990966796875,-16.602462768554688,-287.25457763671875
210,10.466,0.0371856689453125,-0.992218017578125,-0.0826263427734375,-0.013978932052850723,-0.0021116205025464296,0.0007371630053967237,422.5146484375,-16.734603881835938,-287.28973388671875
211,10.515,0.0270843505859375,-0.99822998046875,-0.085113525390625,-0.005400091875344515,-0.003428020980209112,0.0011763182701542974,422.5191650390625,-16.735916137695312,-287.30865478515625
212,10.565,0.036834716796875,-0.99346923828125,-0.0948028564453125,-0.0030573089607059956,0.008525311015546322,0.011788216419517994,422.58489990234375,-16.693527221679688,-287.4813232421875
213,10.615,0.0355987548828125,-0.9967041015625,-0.085968017578125,-0.007071491796523333,-0.01203775405883789,0.0000876179983606562,422.432861328125,-16.629241943359375,-287.2508544921875
214,10.665,0.0326385498046875,-0.9940032958984375,-0.0816192626953125,0.009772202931344509,0.004996622912585735,-0.004512459971010685,422.629150390625,-16.592727661132812,-287.3473815917969
215,10.715,0.02593994140625,-0.9914398193359375,-0.07659912109375,0.0033933997619897127,-0.0062126219272613525,0.006022738758474588,422.68597412109375,-16.734786987304688,-287.2568054199219
216,10.765,0.0385284423828125,-0.9936981201171875,-0.0886383056640625,-0.006884271278977394,0.010062221437692642,-0.007860586047172546,422.5942077636719,-16.737380981445312,-287.13079833984375
217,10.814,0.031097412109375,-0.9962005615234375,-0.0813751220703125,-0.0002772350562736392,-0.01471609529107809,0.002615224104374647,422.5595703125,-16.645462036132812,-287.23004150390625
218,10.864,0.031494140625,-0.995086669921875,-0.087493896484375,-0.0005661880713887513,0.004496214911341667,-0.0009859022684395313,422.63543701171875,-16.669998168945312,-287.4063720703125
219,10.914,0.036407470703125,-0.993377685546875,-0.0833740234375,0.00044554684427566826,0.014985340647399426,-0.004369182046502829,422.5445556640625,-16.783645629882812,-287.26708984375
220,10.964,0.0285491943359375,-0.9924163818359375,-0.079559326171875,-0.0079721724614501,-0.011211375705897808,0.000972852751147002,422.6153564453125,-16.587966918945312,-287.3568115234375
221,11.014,0.033355712890625,-0.99713134765625,-0.0838470458984375,0.007060572504997253,0.009548497386276722,-0.009098157286643982,422.40875244140625,-16.636795043945312,-287.5834655761719
222,11.064,0.0307769775390625,-0.9925384521484375,-0.0885772705078125,-0.007533283904194832,-0.011097392067313194,0.003055711043998599,422.5997009277344,-16.586624145507812,-287.7054443359375
223,11.113,0.029052734375,-0.99444580078125,-0.08563232421875,0.005720736458897591,0.007166566327214241,0.0016202671686187387,422.4939880371094,-16.5186767578125,-287.4403381347656
224,11.163,0.038330078125,-0.9948272705078125,-0.079315185546875,-0.0018804579740390182,0.0151592455804348,-0.0015515576815232635,422.6346435546875,-16.703811645507812,-287.5791015625
225,11.213,0.0281982421875,-0.99383544921875,-0.08428955078125,0.0023334617726504803,-0.01047581061720848,0.0035380094777792692,422.58404541015625,-16.668975830078125,-287.62493896484375
226,11.263,0.035552978515625,-0.9963836669921875,-0.079681396484375,-0.004652009811252356,0.002907373011112213,-0.01335601881146431,422.55096435546875,-16.870956420898438,-287.5015563964844
227,11.313,0.03350830078125,-0.9932708740234375,-0.0861663818359375,0.0036732980515807867,-0.017679661512374878,0.013440174981951714,422.562255859375,-16.8665771484375,-287.20147705078125
228,11.363,0.02447509765625,-0.994873046875,-0.0841522216796875,0.0067694890312850475,0.0378057025372982,-0.009749033488333225,422.30584716796875,-16.725540161132812,-287.7757873535156
229,11.412,0.0386962890625,-0.996490478515625,-0.0822296142578125,-0.0008807073463685811,-0.03683338314294815,0.010872354730963707,422.60772705078125,-16.910934448242188,-287.3467712402344
230,11.462,0.026702880859375,-0.9937286376953125,-0.0841064453125,0.014178935438394547,0.023916518315672874,-0.011129883117973804,422.3955078125,-16.723953247070312,-287.884521484375
231,11.512,0.0363922119140625,-0.991607666015625,-0.0686798095703125,-0.0036647759843617678,-0.005501025356352329,0.004235225263983011,422.27313232421875,-16.60260009765625,-287.0766296386719
232,11.562,0.026214599609375,-0.9944915771484375,-0.08111572265625,0.0011060107499361038,0.011365306563675404,-0.008215319365262985,422.295166015625,-16.634811401367188,-287.2540283203125
233,11.612,0.038970947265625,-0.99481201171875,-0.082244873046875,-0.013522733002901077,-0.00797137338668108,0.0005970807396806777,422.4783935546875,-16.7122802734375,-287.50274658203125
234,11.662,0.0231170654296875,-0.99798583984375,-0.086669921875,-0.004161987919360399,-0.005331648513674736,0.001651426195167005,422.50457763671875,-16.741012573242188,-287.60687255859375
235,11.712,0.0395355224609375,-0.99432373046875,-0.085784912109375,0.0013014868600293994,0.018190454691648483,-0.0019736685790121555,422.3775634765625,-16.38006591796875,-287.315673828125
236,11.761,0.030303955078125,-0.992950439453125,-0.0714263916015625,0.012734703719615936,-0.025666747242212296,0.004709800239652395,422.15435791015625,-16.4459228515625,-287.1470947265625
237,11.811,0.0306854248046875,-0.9940185546875,-0.084747314453125,-0.009126386605203152,0.007352721411734819,-0.002154231071472168,422.28759765625,-16.613082885742188,-287.67474365234375
238,11.861,0.033172607421875,-0.99652099609375,-0.0794525146484375,0.004619519226253033,-0.0029760824982076883,0.0028972530271857977,422.40020751953125,-16.65582275390625,-287.1783447265625
239,11.911,0.0328369140625,-0.99334716796875,-0.0777435302734375,0.005619003437459469,0.004868524614721537,-0.0021374530624598265,422.4939880371094,-16.715988159179688,-287.46392822265625
240,11.961,0.0340576171875,-0.9957275390625,-0.0882568359375,-0.003748665563762188,0.009218798018991947,-0.00990109983831644,422.5673828125,-16.5701904296875,-287.343994140625
241,12.011,0.0283050537109375,-0.992645263671875,-0.0783233642578125,-0.0038333539851009846,-0.004129763692617416,0.000934236915782094,422.3284606933594,-16.56494140625,-287.423583984375
242,12.06,0.0346527099609375,-0.993896484375,-0.081390380859375,-0.0021699436474591494,0.012795955874025822,-0.009826531633734703,422.31695556640625,-16.451065063476562,-287.13800048828125
243,12.11,0.0323486328125,-0.9949951171875,-0.078125,0.008555671200156212,-0.003325489116832614,0.006165483966469765,422.33074951171875,-16.580795288085938,-286.9639892578125
244,12.16,0.0359344482421875,-0.992919921875,-0.0809783935546875,-0.0020271982066333294,0.006893326062709093,-0.011474495753645897,422.3504638671875,-16.474822998046875,-287.24261474609375
245,12.21,0.030303955078125,-0.9951324462890625,-0.0751800537109375,-0.0011025486746802926,-0.01092508528381586,0.004159324802458286,422.3448486328125,-16.344436645507812,-287.0927734375
246,12.26,0.0310821533203125,-0.996917724609375,-0.0919189453125,-0.009148490615189075,0.0034645062405616045,0.00015925703337416053,422.07861328125,-16.544189453125,-287.545654296875
247,12.31,0.0381927490234375,-0.993927001953125,-0.069732666015625,0.001731320982798934,-0.008583101443946362,-0.010010556317865849,422.3551330566406,-16.603469848632812,-287.48101806640625
248,12.359,0.02642822265625,-0.996063232421875,-0.08038330078125,0.0059742690064013,0.003765709698200226,0.0019837887957692146,422.5647888183594,-16.569305419921875,-287.3047180175781
249,12.409,0.0374298095703125,-0.9928131103515625,-0.0794830322265625,-0.004832039587199688,0.018067151308059692,-0.007742342073470354,422.3863525390625,-16.675247192382812,-287.35028076171875
250,12.459,0.0306854248046875,-0.9967803955078125,-0.083282470703125,-0.013760287314653397,-0.03380057215690613,-0.0005462143453769386,422.4547119140625,-16.621124267578125,-287.1571350097656
251,12.509,0.0255584716796875,-0.993255615234375,-0.082550048828125,0.0037238982040435076,0.013018596917390823,0.005520466715097427,422.51312255859375,-16.66400146484375,-287.07843017578125
252,12.559,0.0308837890625,-0.9944610595703125,-0.071441650390625,-0.0040442761965096,0.013233779929578304,0.004289020784199238,422.41485595703125,-16.514434814453125,-287.1305847167969
253,12.609,0.030975341796875,-0.9983062744140625,-0.0933837890625,-0.00890694186091423,-0.013399428687989712,-0.003441869281232357,422.4520263671875,-16.624282836914062,-287.37982177734375
254,12.658,0.031494140625,-0.9947967529296875,-0.078704833984375,0.016530772671103477,0.007260043174028397,-0.003549194661900401,422.31671142578125,-16.509689331054688,-287.31396484375
255,12.708,0.0283966064453125,-0.9920196533203125,-0.073577880859375,-0.0015014902455732226,0.006149771623313427,-0.0021949773654341698,422.484130859375,-16.782241821289062,-287.23956298828125
256,12.758,0.039276123046875,-0.993682861328125,-0.0746307373046875,-0.015164039097726345,0.004868524614721537,-0.002718821167945862,422.56964111328125,-16.640884399414062,-286.996337890625
257,12.808,0.025299072265625,-0.9967041015625,-0.0905303955078125,-0.007349525578320026,-0.024513598531484604,0.005905027035623789,422.624755859375,-16.727569580078125,-287.30523681640625
258,12.858,0.0355377197265625,-0.9952850341796875,-0.078765869140625,0.009133843705058098,0.016871390864253044,-0.00301762786693871,422.5499267578125,-16.541580200195312,-287.0668029785156
259,12.908,0.030242919921875,-0.9944915771484375,-0.0813140869140625,-0.0008556736283935606,-0.022826485335826874,0.008245945908129215,422.47796630859375,-16.415969848632812,-287.06121826171875
260,12.957,0.033203125,-0.991851806640625,-0.0773773193359375,0.00216568261384964,0.03549407795071602,-0.01900644786655903,422.7191162109375,-16.424346923828125,-287.26678466796875
261,13.007,0.024505615234375,-0.9941558837890625,-0.0794525146484375,-0.01865411177277565,-0.03983742743730545,0.018675150349736214,422.6214294433594,-16.5765380859375,-287.15753173828125
262,13.057,0.028289794921875,-0.9997100830078125,-0.08599853515625,0.015916915610432625,0.03478913754224777,-0.00905900914222002,422.697998046875,-16.565078735351562,-287.046630859375
263,13.107,0.039886474609375,-0.992462158203125,-0.080413818359375,0.0035321505274623632,-0.006087453570216894,0.0032764871139079332,422.7713623046875,-16.6300048828125,-287.0199279785156
264,13.157,0.0305633544921875,-0.9932708740234375,-0.0797119140625,-0.005299424286931753,-0.006454170681536198,-0.0075780246406793594,422.6800231933594,-16.636611938476562,-287.03887939453125
265,13.207,0.028167724609375,-0.9957275390625,-0.084381103515625,-0.007780691608786583,0.0048797097988426685,0.0036485306918621063,422.72412109375,-16.300811767578125,-287.24169921875
266,13.256,0.0334320068359375,-0.9940032958984375,-0.0775146484375,0.012776515446603298,0.007231014780700207,-0.009052883833646774,422.56646728515625,-16.461761474609375,-286.97406005859375
267,13.306,0.031768798828125,-0.9908447265625,-0.06964111328125,-0.004320446401834488,-0.003305249148979783,0.00803076196461916,422.614013671875,-16.571853637695312,-287.0849304199219
268,13.356,0.0343170166015625,-0.9976348876953125,-0.080322265625,-0.008563661016523838,0.01350515615195036,-0.009459015913307667,422.63519287109375,-16.713180541992188,-287.2119140625
269,13.406,0.0312347412109375,-0.9961395263671875,-0.0828399658203125,-0.0026101642288267612,-0.016089487820863724,-0.0006511429091915488,422.71038818359375,-16.606857299804688,-287.0630798339844
270,13.456,0.033447265625,-0.9946746826171875,-0.0843353271484375,0.006264820229262114,0.004703941289335489,-0.004002198576927185,422.5724792480469,-16.313812255859375,-287.3983154296875
271,13.506,0.03271484375,-0.995361328125,-0.0768890380859375,-0.002516953507438302,0.009372196160256863,0.0003507383225951344,422.5062255859375,-16.359939575195312,-287.12579345703125
272,13.555,0.0315704345703125,-0.99365234375,-0.076904296875,0.0006181196658872068,0.009787383489310741,-0.007832623086869717,422.8196105957031,-16.766632080078125,-287.1092529296875
273,13.605,0.033721923828125,-0.9947509765625,-0.082366943359375,-0.000251402409048751,-0.01642424613237381,0.006785201840102673,422.70843505859375,-16.583297729492188,-287.3192138671875
274,13.655,0.0331573486328125,-0.9917755126953125,-0.0768280029296875,-0.004122573416680098,0.017195498570799828,-0.0024517059791833162,422.5345458984375,-16.531829833984375,-287.10162353515625
275,13.705,0.0323333740234375,-0.9986572265625,-0.0840301513671875,-0.006417419295758009,-0.0033489251509308815,0.0022090920247137547,422.46051025390625,-16.473953247070312,-287.18865966796875
276,13.755,0.032562255859375,-0.9949188232421875,-0.0714569091796875,0.00683233980089426,-0.010892861522734165,-0.0027137610595673323,422.4389953613281,-16.590133666992188,-287.2476806640625
277,13.805,0.0296783447265625,-0.996337890625,-0.0780181884765625,0.014512097463011742,0.008569253608584404,0.004128698725253344,422.4541015625,-16.538299560546875,-287.10211181640625
278,13.854,0.0362091064453125,-0.9909210205078125,-0.0702362060546875,0.0002388855500612408,0.032099612057209015,-0.010379403829574585,422.7095947265625,-16.6199951171875,-287.05126953125
279,13.904,0.031982421875,-0.9949951171875,-0.07305908203125,-0.011864915490150452,-0.021162543445825577,0.0034677020739763975,422.537353515625,-16.578582763671875,-287.1979675292969
280,13.954,0.027618408203125,-0.9983367919921875,-0.08648681640625,0.004070109222084284,0.008352472446858883,-0.0036828855518251657,422.4924011230469,-16.496246337890625,-287.0661315917969
281,14.004,0.0321197509765625,-0.9955902099609375,-0.0760345458984375,-0.0014540859265252948,-0.007494401652365923,0.006963367108255625,422.39105224609375,-16.471588134765625,-286.9991455078125
282,14.054,0.0345611572265625,-0.9913482666015625,-0.0725250244140625,0.003028546692803502,-0.004839762579649687,-0.002398442942649126,422.30950927734375,-16.441329956054688,-287.122802734375
283,14.104,0.02880859375,-0.99737548828125,-0.0796051025390625,-0.00039547940832562745,-0.001458080718293786,-0.005409945268183947,422.38250732421875,-16.514907836914062,-287.1370849609375
284,14.153,0.0316009521484375,-0.9949493408203125,-0.079437255859375,0.007056578062474728,-0.005350290797650814,0.0002639192680362612,422.4541015625,-16.394973754882812,-287.1976623535156
285,14.203,0.033111572265625,-0.99066162109375,-0.06939697265625,0.004381965380162001,0.016229037195444107,-0.009824400767683983,422.4409484863281,-16.4453125,-286.86370849609375
286,14.253,0.0313873291015625,-0.9980926513671875,-0.08721923828125,-0.01002067606896162,-0.023612918332219124,0.002040247665718198,422.4987487792969,-16.3875732421875,-287.077880859375
287,14.303,0.030059814453125,-0.993560791015625,-0.079193115234375,0.026762371882796288,0.04120336100459099,-0.009037703275680542,422.5606689453125,-16.558258056640625,-286.8510437011719
288,14.353,0.035125732421875,-0.9918975830078125,-0.064056396484375,-0.012769324705004692,-0.029836192727088928,0.0008096009842120111,422.2843017578125,-16.19940185546875,-286.75128173828125
289,14.403,0.0230712890625,-0.9971466064453125,-0.0828094482421875,0.004775314126163721,0.004500209353864193,0.006061621010303497,422.2891845703125,-16.337326049804688,-287.04254150390625
290,14.453,0.0394287109375,-0.993499755859375,-0.0718536376953125,0.0005499427788890898,0.0034314829390496016,0.00048176583368331194,422.5478210449219,-16.537979125976562,-286.69732666015625
291,14.502,0.0291290283203125,-0.997894287109375,-0.0756683349609375,0.011266768909990788,-0.0026770094409585,0.002216282533481717,422.5511779785156,-16.48736572265625,-286.8670654296875
292,14.552,0.031585693359375,-0.9942779541015625,-0.0673980712890625,0.009279518388211727,0.010817760601639748,-0.0006005428149364889,422.29974365234375,-16.490036010742188,-287.00311279296875
293,14.602,0.030029296875,-0.9936981201171875,-0.076629638671875,0.0076334187760949135,0.0000881506348378025,0.00250550196506083,422.23809814453125,-16.248245239257812,-287.00439453125
294,14.652,0.0361480712890625,-0.9968109130859375,-0.0742340087890625,0.0059993029572069645,-0.007416370790451765,0.002776611829176545,422.55859375,-16.259979248046875,-286.8184509277344
295,14.702,0.0273895263671875,-0.9948883056640625,-0.07550048828125,0.02045627310872078,0.00956660695374012,0.0018903117161244154,422.37030029296875,-16.252655029296875,-286.8686828613281
296,14.752,0.030059814453125,-0.9926910400390625,-0.0579986572265625,0.006116215605288744,-0.006843524985015392,0.0014421016676351428,422.4938659667969,-16.4508056640625,-286.7508544921875
297,14.801,0.0326690673828125,-0.995758056640625,-0.0806884765625,0.014074273407459259,0.004515922162681818,-0.0036195022985339165,422.24224853515625,-16.230178833007812,-286.8872375488281
298,14.851,0.0281982421875,-0.99725341796875,-0.0731048583984375,0.010654508136212826,0.0003350256592966616,0.009247028268873692,422.37066650390625,-16.194961547851562,-286.6358642578125
299,14.901,0.031982421875,-0.9933624267578125,-0.0653839111328125,0.010844391770660877,0.010421748273074627,-0.003257844829931855,422.41766357421875,-16.345870971679688,-286.8870849609375
300,14.951,0.0372467041015625,-0.9966888427734375,-0.071746826171875,0.015431953594088554,-0.0701063871383667,0.0023851271253079176,422.5433654785156,-16.525039672851562,-286.635009765625
301,15.001,0.02471923828125,-0.995269775390625,-0.064788818359375,0.011578625068068504,0.012377041392028332,-0.006461095064878464,422.6492919921875,-16.4281005859375,-286.45123291015625
302,15.051,0.028594970703125,-0.998687744140625,-0.0619049072265625,0.013778130523860455,0.008364723064005375,0.008282430469989777,422.6395568847656,-16.448516845703125,-286.2886962890625
303,15.1,0.0322723388671875,-0.9968109130859375,-0.07415771484375,0.023363912478089333,0.009611082263290882,-0.008471781387925148,422.5419921875,-16.577606201171875,-286.28216552734375
304,15.15,0.0352020263671875,-0.9956207275390625,-0.0686798095703125,0.034928422421216965,-0.0032919333316385746,-0.0021904499735683203,422.5615234375,-16.377120971679688,-286.49041748046875
305,15.2,0.03118896484375,-0.9958038330078125,-0.0563507080078125,-0.009514409117400646,0.01245294138789177,0.005710882600396872,422.41058349609375,-16.354736328125,-286.4482421875
306,15.25,0.0330963134765625,-0.994140625,-0.0692291259765625,0.007940747775137424,0.014536065980792046,-0.004048537462949753,422.4490966796875,-16.39898681640625,-286.23602294921875
307,15.3,0.0313568115234375,-0.99951171875,-0.0648040771484375,-0.0019917781464755535,-0.003961185924708843,-0.0034290861804038286,422.40960693359375,-16.51318359375,-286.6353759765625
308,15.35,0.026885986328125,-0.9918670654296875,-0.053253173828125,0.01031628716737032,0.023455524817109108,-0.0071010529063642025,422.42437744140625,-16.328582763671875,-286.3000183105469
309,15.399,0.03289794921875,-0.99468994140625,-0.05755615234375,-0.01774703897535801,-0.005364139098674059,0.0028301412239670753,422.5086975097656,-16.30438232421875,-286.19586181640625
310,15.449,0.0341796875,-0.998992919921875,-0.07244873046875,0.004780906718224287,0.0032141690608114004,-0.008847021497786045,422.580810546875,-16.33868408203125,-286.145751953125
311,15.499,0.0266876220703125,-0.99853515625,-0.060333251953125,0.006819822825491428,0.002064482541754842,-0.004517520312219858,422.3835144042969,-16.298934936523438,-286.31158447265625
312,15.549,0.031646728515625,-0.9968109130859375,-0.0581817626953125,0.01702132821083069,-0.0054546864703297615,0.003561711637303233,422.46209716796875,-16.317626953125,-286.2500305175781
313,15.599,0.0298614501953125,-0.9923248291015625,-0.054443359375,0.009468869306147099,0.0001395496365148574,-0.002557699801400304,422.3043212890625,-16.204971313476562,-286.0775146484375
314,15.649,0.02813720703125,-0.9971160888671875,-0.063232421875,-0.007210242096334696,0.0060059609822928905,0.0037803570739924908,422.44842529296875,-16.361526489257812,-286.1619567871094
315,15.698,0.0333404541015625,-0.9980621337890625,-0.0664520263671875,-0.00030306773260235786,0.0020306603983044624,-0.0037057886365801096,422.4329833984375,-16.084884643554688,-286.16876220703125
316,15.748,0.030517578125,-0.997467041015625,-0.061767578125,0.004830707795917988,-0.005026982631534338,0.004042678512632847,422.434326171875,-16.481353759765625,-286.424072265625
317,15.798,0.0323333740234375,-0.994110107421875,-0.065399169921875,0.012268117628991604,0.0034732946660369635,-0.0005211806274019182,422.421630859375,-16.260147094726562,-286.206787109375
318,15.848,0.0273895263671875,-0.995513916015625,-0.0682525634765625,0.004219778813421726,-0.0034530546981841326,0.004904477391391993,422.5665283203125,-16.321151733398438,-286.2319641113281
319,15.898,0.03143310546875,-0.9923858642578125,-0.0489044189453125,0.011590875685214996,-0.0009390306076966226,0.006372944451868534,422.35675048828125,-16.292037963867188,-286.421630859375
320,15.948,0.0286712646484375,-0.9981842041015625,-0.0631256103515625,-0.0033518546260893345,-0.019702598452568054,0.003932689782232046,422.579833984375,-16.407180786132812,-286.21795654296875
321,15.997,0.0311279296875,-0.99468994140625,-0.0684356689453125,0.013455887325108051,0.00013875069271307439,0.007141532842069864,422.26190185546875,-16.026687622070312,-286.6659851074219
322,16.047,0.028106689453125,-0.996734619140625,-0.052764892578125,0.001454618526622653,-0.012439092621207237,0.0035350800026208162,422.2362365722656,-16.271331787109375,-286.3408203125
323,16.097,0.03741455078125,-0.9967498779296875,-0.0603790283203125,0.009754093363881111,-0.0018069547368213534,-0.008184692822396755,422.3782043457031,-16.030593872070312,-286.0552978515625
324,16.147,0.0261077880859375,-0.9993896484375,-0.0634307861328125,0.008077899925410748,-0.005485845264047384,0.016087090596556664,422.489501953125,-16.2821044921875,-286.204345703125
325,16.197,0.0250091552734375,-0.9949951171875,-0.0460662841796875,0.016753945499658585,0.022608639672398567,-0.0004988100845366716,422.24139404296875,-16.39697265625,-285.98638916015625
326,16.247,0.0368499755859375,-0.994873046875,-0.0586395263671875,0.0024490428622812033,-0.02412104792892933,-0.0033747577108442783,422.4923400878906,-16.1407470703125,-286.2063903808594
327,16.296,0.0216522216796875,-0.997528076171875,-0.05950927734375,0.004583832807838917,0.007031544111669064,0.0020929782185703516,422.2666320800781,-16.2490234375,-286.2674255371094
328,16.346,0.03961181640625,-0.9916534423828125,-0.0464630126953125,-0.005007009021937847,0.010056628845632076,-0.003573695896193385,422.257080078125,-16.160003662109375,-286.08612060546875
329,16.396,0.025177001953125,-1.0003662109375,-0.0562591552734375,-0.010974886827170849,-0.010075537487864494,-0.003091131104156375,421.96728515625,-16.0860595703125,-286.0789794921875
330,16.446,0.028717041015625,-0.9958648681640625,-0.0644989013671875,-0.0020714066922664642,0.0017121462151408195,0.005304484162479639,422.2483215332031,-16.097305297851562,-286.0205078125
331,16.496,0.0279388427734375,-0.9987640380859375,-0.05377197265625,0.003150785807520151,-0.0011227887589484453,-0.006221144460141659,422.34637451171875,-16.343536376953125,-285.9677734375
332,16.546,0.029296875,-0.997100830078125,-0.0640716552734375,-0.0038807583041489124,-0.002703374717384577,0.00555269094184041,422.3233337402344,-16.242889404296875,-286.0904541015625
333,16.595,0.0316162109375,-0.99761962890625,-0.0503692626953125,0.009362342767417431,-0.006795321591198444,-0.0007582019316032529,422.45135498046875,-16.175384521484375,-285.96746826171875
334,16.645,0.021636962890625,-0.9931488037109375,-0.0472412109375,0.0007752461824566126,-0.005615008994936943,-0.0005930859479121864,422.26055908203125,-16.384796142578125,-286.18988037109375
335,16.695,0.03564453125,-0.9993743896484375,-0.0583648681640625,0.007192132994532585,-0.007898403331637383,0.0022120214998722076,422.31768798828125,-16.069717407226562,-286.4337158203125
336,16.745,0.0274810791015625,-0.99505615234375,-0.0519561767578125,0.004893292207270861,0.001273257308639586,-0.008040616288781166,422.4621887207031,-16.3980712890625,-286.3435974121094
337,16.795,0.0290069580078125,-0.997528076171875,-0.058746337890625,-0.006178000941872597,-0.0017864484107121825,-0.004837365821003914,422.3538818359375,-16.242599487304688,-286.24176025390625
338,16.845,0.0285491943359375,-0.9956817626953125,-0.0474700927734375,0.007607585750520229,0.003364637726917863,-0.002547047333791852,422.1985778808594,-16.233779907226562,-286.28424072265625
339,16.895,0.0296783447265625,-0.997406005859375,-0.0608062744140625,0.01350648794323206,-0.0017262609908357263,0.000788561999797821,422.26763916015625,-16.21099853515625,-286.4422607421875
340,16.944,0.0280303955078125,-0.9936065673828125,-0.04541015625,-0.003745736088603735,0.003969175275415182,-0.005702626891434193,422.30572509765625,-16.196990966796875,-286.1873474121094
341,16.994,0.029693603515625,-0.99755859375,-0.0553741455078125,-0.004310326185077429,-0.011365572921931744,-0.0012996225850656629,422.32977294921875,-16.326263427734375,-286.2327880859375
342,17.044,0.03045654296875,-0.998687744140625,-0.0580596923828125,0.007693872321397066,-0.0006671218434348702,0.00452843913808465,422.3692626953125,-16.141769409179688,-286.3009033203125
343,17.094,0.0313568115234375,-0.994293212890625,-0.045196533203125,0.0017808558186516166,-0.009466738440096378,-0.0034503915812820196,422.0855712890625,-16.286392211914062,-286.09173583984375
344,17.144,0.0272064208984375,-0.99969482421875,-0.060577392578125,-0.0015310513554140925,0.002755306428298354,-0.0036820864770561457,422.35980224609375,-16.147857666015625,-286.1514587402344
345,17.194,0.032958984375,-0.9941864013671875,-0.0479888916015625,0.01531743723899126,0.02237987332046032,0.0019459717441350222,422.35791015625,-16.303024291992188,-286.24896240234375
346,17.243,0.0257110595703125,-0.9972686767578125,-0.05377197265625,-0.017793111503124237,-0.023007581010460854,0.004760134033858776,422.35791015625,-16.303024291992188,-286.24896240234375
347,17.293,0.030059814453125,-1.0000152587890625,-0.05865478515625,0.014279869385063648,0.014521418139338493,-0.0049369679763913155,422.1467590332031,-16.11920166015625,-286.1910095214844
348,17.343,0.0262603759765625,-0.9960174560546875,-0.044769287109375,0.00330231967382133,-0.013640711084008217,0.009886985644698143,422.1467590332031,-16.11920166015625,-286.1910095214844
349,17.393,0.0246734619140625,-0.991546630859375,-0.0409393310546875,0.004451473709195852,0.02731018327176571,-0.0026727484073489904,422.2611083984375,-16.20648193359375,-286.0076904296875
350,17.443,0.0310821533203125,-1.000732421875,-0.057647705078125,-0.02087252400815487,-0.007661648094654083,0.011317902244627476,422.3595275878906,-16.200241088867188,-285.9764404296875
351,17.493,0.0311126708984375,-0.9987640380859375,-0.054656982421875,0.012339224107563496,0.00595456175506115,-0.005586512852460146,422.18133544921875,-16.281936645507812,-285.97796630859375
352,17.542,0.029876708984375,-0.996337890625,-0.0507659912109375,0.0007091998122632504,-0.011711250990629196,0.0018082864116877317,422.26312255859375,-16.197296142578125,-285.8861083984375
353,17.592,0.0226593017578125,-0.9954986572265625,-0.0569915771484375,0.014083861373364925,0.004797950852662325,-0.002510828198865056,422.29547119140625,-16.143463134765625,-285.96075439453125
354,17.642,0.0331573486328125,-0.994873046875,-0.043792724609375,0.0024887239560484886,0.009664878249168396,0.0011411645682528615,422.05450439453125,-16.139633178710938,-286.1398620605469
355,17.692,0.0249481201171875,-0.99639892578125,-0.0590057373046875,-0.0026322684716433287,-0.01593768782913685,-0.0002721750643104315,422.0253601074219,-15.9796142578125,-285.8271484375
356,17.742,0.02557373046875,-0.994659423828125,-0.0419464111328125,0.01980672776699066,0.014274809509515762,-0.008829178288578987,422.20306396484375,-16.06768798828125,-285.85369873046875
357,17.792,0.0227203369140625,-0.994598388671875,-0.0446319580078125,0.014280668459832668,0.0059806606732308865,-0.004268780816346407,422.037353515625,-16.002334594726562,-285.4052429199219
358,17.841,0.0213165283203125,-0.99554443359375,-0.0519256591796875,0.011944543570280075,0.019471436738967896,-0.0002937466779258102,421.93829345703125,-16.058502197265625,-285.3795166015625
359,17.891,0.0295867919921875,-0.9977874755859375,-0.0456085205078125,0.005593703594058752,-0.009841179475188255,0.0010330402292311192,422.2403564453125,-15.897933959960938,-285.4452819824219
360,17.941,0.0272064208984375,-0.99346923828125,-0.0535888671875,-0.003980626817792654,-0.004201402887701988,-0.0005677859298884869,422.151123046875,-15.818618774414062,-285.7454833984375
361,17.991,0.0254669189453125,-0.9970703125,-0.04119873046875,-0.0013725932221859694,0.010431601665914059,-0.0026405241806060076,422.138671875,-15.733993530273438,-285.64990234375
362,18.041,0.028472900390625,-0.997283935546875,-0.05279541015625,-0.008360194973647594,-0.012858008034527302,0.00464668357744813,422.05548095703125,-15.913070678710938,-285.4832763671875
363,18.091,0.0281829833984375,-0.99603271484375,-0.0400238037109375,0.004713528789579868,0.003725496120750904,-0.005761216394603252,422.0299072265625,-15.79632568359375,-285.791748046875
364,18.14,0.0266571044921875,-0.9995574951171875,-0.0558013916015625,-0.0002985403698403388,-0.00433189794421196,0.003322559641674161,422.13970947265625,-16.068893432617188,-285.9714660644531
365,18.19,0.030548095703125,-1.0003814697265625,-0.0594635009765625,0.011637747287750244,-0.0003326288133393973,0.005027515348047018,422.04034423828125,-16.039199829101562,-285.8379821777344
366,18.24,0.0286407470703125,-0.9946136474609375,-0.042327880859375,0.008051801472902298,0.014080665074288845,-0.00920308567583561,422.08538818359375,-15.84423828125,-285.82818603515625
367,18.29,0.0255279541015625,-0.99493408203125,-0.0387420654296875,-0.007006510626524687,-0.02425900101661682,0.004136155359447002,422.218505859375,-16.017379760742188,-285.8028564453125
368,18.34,0.0279541015625,-0.99835205078125,-0.05291748046875,-0.006827812176197767,0.021081583574414253,0.0004695153038483113,422.1690673828125,-16.027603149414062,-285.7120361328125
369,18.39,0.0261993408203125,-0.9961090087890625,-0.0525970458984375,-0.002377403900027275,-0.010002033784985542,0.009163138456642628,422.3475646972656,-16.141647338867188,-285.77508544921875
370,18.439,0.028076171875,-0.9988861083984375,-0.05120849609375,0.009021724574267864,0.005047755315899849,-0.0041587925516068935,422.17877197265625,-15.994598388671875,-285.70257568359375
371,18.489,0.02398681640625,-0.993560791015625,-0.040435791015625,0.017616810277104378,0.010491522960364819,-0.0008612662786617875,422.28533935546875,-16.089813232421875,-285.748779296875
372,18.539,0.0282135009765625,-0.998138427734375,-0.04473876953125,0.0030085730832070112,-0.00563977612182498,-0.00005273058923194185,422.15167236328125,-16.0477294921875,-285.7801513671875
373,18.589,0.020721435546875,-0.9996337890625,-0.024261474609375,0.03050144948065281,-0.0025803367607295513,0.018561167642474174,422.1580810546875,-15.798370361328125,-286.096923828125
374,18.639,0.0236358642578125,-0.99603271484375,-0.039215087890625,0.022247249260544777,0.008183627389371395,-0.001371794263832271,422.0903015136719,-15.961196899414062,-285.72027587890625
375,18.689,0.0256500244140625,-0.994232177734375,-0.0427093505859375,-0.016886038705706596,0.01420450210571289,0.004247209057211876,422.069580078125,-15.8524169921875,-285.88909912109375
376,18.738,0.02874755859375,-0.9996490478515625,-0.0470733642578125,-0.019522035494446754,-0.005645635072141886,-0.004877845756709576,422.2087707519531,-15.852691650390625,-285.6956787109375
377,18.788,0.0238037109375,-0.9997711181640625,-0.0491485595703125,0.004895688965916634,-0.013147493824362755,-0.000586161739192903,422.1498107910156,-16.291549682617188,-285.78741455078125
378,18.838,0.0228118896484375,-0.9959716796875,-0.03961181640625,0.018877550959587097,0.01648256927728653,-0.004519384354352951,422.19061279296875,-15.984085083007812,-285.83538818359375
379,18.888,0.0299224853515625,-0.9932403564453125,-0.0418243408203125,-0.004776113200932741,-0.0010045443195849657,-0.0015286544803529978,422.02374267578125,-15.945510864257812,-285.8280029296875
380,18.938,0.0262603759765625,-0.9995269775390625,-0.0504302978515625,-0.006444850005209446,0.0005550027708522975,-0.007185208611190319,422.0736083984375,-15.968673706054688,-285.66357421875
381,18.988,0.025390625,-0.9958038330078125,-0.037078857421875,-0.005827795248478651,0.003650128608569503,-0.006881874520331621,422.0954284667969,-16.118255615234375,-285.7851257324219
382,19.037,0.02471923828125,-0.9965667724609375,-0.042449951171875,0.001261805766262114,-0.005490372888743877,0.0012815131340175867,421.99493408203125,-15.925491333007812,-285.96539306640625
383,19.087,0.023529052734375,-0.995269775390625,-0.0389862060546875,-0.012618323788046837,0.012986638583242893,-0.0035428032279014587,421.9820556640625,-15.897628784179688,-285.69940185546875
384,19.137,0.0299224853515625,-0.9976654052734375,-0.0497283935546875,-0.013198626227676868,-0.018616560846567154,0.004362790379673243,421.834228515625,-15.773605346679688,-285.74896240234375
385,19.187,0.020782470703125,-0.9986724853515625,-0.0462799072265625,0.010128534398972988,0.008020109497010708,-0.0035175031516700983,421.8773193359375,-15.855010986328125,-285.96429443359375
386,19.237,0.027618408203125,-0.99395751953125,-0.038177490234375,-0.012120045721530914,-0.005314338020980358,0.004136155359447002,422.031005859375,-15.923004150390625,-285.90228271484375
387,19.287,0.024139404296875,-0.9985504150390625,-0.0435943603515625,0.0008498146780766547,0.005262406077235937,-0.004650411661714315,421.9793701171875,-16.043991088867188,-285.81884765625
388,19.336,0.0240478515625,-0.999237060546875,-0.0510711669921875,0.00290444353595376,0.0006745787104591727,0.004229898564517498,422.07000732421875,-15.9608154296875,-285.7557373046875
389,19.386,0.0307464599609375,-0.997314453125,-0.0441131591796875,-0.0017539578257128596,-0.0005198490689508617,-0.006567621603608131,422.02935791015625,-16.041839599609375,-285.87701416015625
390,19.436,0.0254669189453125,-0.99853515625,-0.0378875732421875,0.001844505313783884,-0.00044474788592197,-0.0009177253232337534,422.1688232421875,-16.213592529296875,-285.7511901855469
391,19.486,0.0220489501953125,-0.996246337890625,-0.04986572265625,-0.0023441144730895758,-0.002426672261208296,-0.007140201050788164,422.15679931640625,-15.9791259765625,-286.0389404296875
392,19.536,0.0248870849609375,-1.00225830078125,-0.0550537109375,0.03646266832947731,0.028665199875831604,-0.003043726785108447,422.34222412109375,-16.133193969726562,-285.7926330566406
393,19.586,0.0602569580078125,-0.982940673828125,0.05419921875,-0.09076132625341415,-0.0657033771276474,-0.03187910467386246,422.093994140625,-15.80816650390625,-285.778564453125
394,19.636,0.0381317138671875,-1.0464630126953125,-0.2086181640625,0.12996385991573334,-0.10713870078325272,0.0368160717189312,422.27947998046875,-16.150848388671875,-285.5932922363281
