index,time,acc x,acc y,acc z,gyro x,gyro y,gyro z,mag x,mag y,mag z
0,0,-0.0996246337890625,-0.0653839111328125,-1.0168304443359375,-0.6028448343276978,-0.45259249210357666,-0.07053674757480621,433.853271484375,8.22296142578125,-246.25363159179688
1,0.05,-0.030548095703125,-0.0167999267578125,-1.027587890625,-0.9118005633354187,0.08037446439266205,-0.2120286375284195,432.1326904296875,6.3702392578125,-251.2205352783203
2,0.1,-0.071563720703125,-0.0163421630859375,-1.048614501953125,-0.2550045847892761,-0.18668679893016815,-0.05096331611275673,426.61737060546875,7.2024078369140625,-254.5655975341797
3,0.149,-0.0705108642578125,-0.0208587646484375,-0.9795989990234375,-0.07272639870643616,-0.09012217074632645,-0.058288075029850006,420.22528076171875,9.762451171875,-257.1554870605469
4,0.199,-0.0960235595703125,-0.00506591796875,-0.979217529296875,-0.014417288824915886,-0.10630779713392258,-0.041132256388664246,415.84600830078125,11.956329345703125,-258.54656982421875
5,0.249,-0.0706634521484375,0.0275421142578125,-0.9992523193359375,-0.05265575274825096,-0.04698295518755913,-0.0831846371293068,412.1744079589844,13.791610717773438,-259.833251953125
6,0.299,-0.0743408203125,0.072235107421875,-1.07281494140625,-0.10521909594535828,-0.15862905979156494,-0.0021025657188147306,407.8524475097656,15.382034301757812,-261.1759948730469
7,0.349,-0.1146087646484375,0.019134521484375,-1.0748748779296875,0.2926265299320221,0.08211085200309753,-0.024344753473997116,399.69287109375,19.055191040039062,-265.253173828125
8,0.399,-0.1107940673828125,-0.0064239501953125,-0.92205810546875,-0.14574681222438812,-0.05938795953989029,-0.14913275837898254,392.2359619140625,22.062545776367188,-270.69024658203125
9,0.448,-0.099761962890625,0.0042266845703125,-1.0999298095703125,-0.39013418555259705,-0.10193861275911331,-0.18970894813537598,387.24945068359375,23.84759521484375,-275.94622802734375
10,0.498,-0.10498046875,-0.0199432373046875,-1.0493316650390625,0.31966403126716614,0.0578201562166214,-0.2885018289089203,381.2021179199219,26.14306640625,-283.3912353515625
11,0.548,-0.05419921875,-0.0175628662109375,-0.895477294921875,0.30581051111221313,-0.09803362190723419,-0.20017437636852264,376.64996337890625,27.034576416015625,-290.66253662109375
12,0.598,-0.0612030029296875,0.01171875,-0.9454345703125,0.16970914602279663,-0.12569507956504822,-0.15875689685344696,373.64337158203125,27.772003173828125,-294.8534851074219
13,0.648,-0.08782958984375,0.01092529296875,-0.9624176025390625,0.2851872742176056,-0.06510736048221588,-0.053467486053705215,371.4585876464844,27.582107543945312,-297.759765625
14,0.698,-0.1510467529296875,-0.022186279296875,-0.87579345703125,0.01332565862685442,-0.11342775821685791,-0.1187085434794426,370.0545654296875,26.940750122070312,-299.69415283203125
15,0.747,-0.0875091552734375,0.00836181640625,-1.003936767578125,-0.6351625919342041,-0.08388504385948181,-0.13419082760810852,369.65728759765625,27.037094116210938,-299.6951904296875
16,0.797,-0.1245269775390625,-0.0356292724609375,-1.1140289306640625,0.029986660927534103,-0.25836390256881714,-0.0940689742565155,369.65728759765625,27.037094116210938,-299.6951904296875
17,0.847,-0.12310791015625,-0.0435638427734375,-0.91546630859375,0.24990437924861908,-0.15588334202766418,-0.14677906036376953,368.503173828125,26.902023315429688,-300.93359375
18,0.897,-0.1353759765625,-0.019866943359375,-0.890594482421875,-0.09077544510364532,-0.1226007491350174,-0.08257397264242172,367.10931396484375,26.379165649414062,-303.47235107421875
19,0.947,-0.2064361572265625,0.013671875,-0.970733642578125,-0.029266275465488434,-0.3070637881755829,-0.038486406207084656,366.032958984375,26.51287841796875,-304.88201904296875
20,0.997,-0.2179107666015625,0.00445556640625,-0.9441070556640625,0.004485561978071928,-0.08355987071990967,-0.07061318308115005,365.0766296386719,26.964767456054688,-304.88470458984375
21,1.047,-0.173858642578125,0.037109375,-0.9692230224609375,-0.7285721302032471,-0.08901669085025787,-0.14225541055202484,364.28045654296875,27.194473266601562,-304.48095703125
22,1.096,-0.160400390625,0.0108795166015625,-1.2094573974609375,-0.4050934314727783,0.02509603276848793,-0.07610542327165604,364.3719482421875,27.602249145507812,-303.5610046386719
23,1.146,-0.2084197998046875,-0.0265655517578125,-0.9658966064453125,0.37075942754745483,0.20400479435920715,-0.10930811613798141,364.71075439453125,27.836013793945312,-304.0745544433594
24,1.196,-0.1483917236328125,-0.003509521484375,-0.917449951171875,0.013806626200675964,0.3574420213699341,-0.18604497611522675,364.8757629394531,26.7049560546875,-308.4187927246094
25,1.246,-0.124725341796875,0.0559234619140625,-1.0091094970703125,0.11319340020418167,0.6788676977157593,-0.1808755099773407,365.72149658203125,26.174346923828125,-312.2756042480469
26,1.296,-0.0578155517578125,0.070465087890625,-0.962615966796875,0.23105958104133606,1.1127419471740723,-0.11374174803495407,367.71148681640625,25.108291625976562,-315.51593017578125
27,1.346,-0.025115966796875,0.02996826171875,-0.859222412109375,-0.21896883845329285,0.9810501933097839,0.05249037221074104,370.09710693359375,23.683059692382812,-318.7523193359375
28,1.395,-0.036651611328125,-0.00018310546875,-1.0487060546875,-0.3536534011363983,0.8584933876991272,0.07996247708797455,372.61260986328125,23.0447998046875,-321.2759704589844
29,1.445,0.014190673828125,0.0247039794921875,-0.9956817626953125,-0.4664100408554077,0.8798607587814331,-0.028558406978845596,373.6779479980469,23.548126220703125,-322.14569091796875
30,1.495,0.0552978515625,0.03546142578125,-1.13470458984375,-0.11139629781246185,-0.70167475938797,0.078508660197258,375.67266845703125,24.217697143554688,-323.0730285644531
31,1.545,-0.014251708984375,0.0399322509765625,-1.0727081298828125,0.399960994720459,-0.5194077491760254,-0.03978363052010536,375.20611572265625,24.641632080078125,-323.2052917480469
32,1.595,0.074188232421875,0.0540313720703125,-0.9833526611328125,0.3734087347984314,-0.5382363200187683,0.07163956761360168,375.50897216796875,23.250991821289062,-323.9066162109375
33,1.645,-0.0036468505859375,0.0615234375,-0.985382080078125,0.24304594099521637,0.5357843041419983,0.12253124266862869,375.8587951660156,21.831512451171875,-323.8740539550781
34,1.694,0.02838134765625,0.0549468994140625,-0.9420623779296875,0.20271901786327362,0.007170561235398054,0.062257781624794006,377.46478271484375,20.848617553710938,-324.7843322753906
35,1.744,0.052734375,0.0391693115234375,-0.9681549072265625,-0.1618163287639618,0.4693525731563568,0.10676106810569763,378.6515197753906,19.490875244140625,-325.122314453125
36,1.794,0.0698394775390625,0.0349578857421875,-1.0601348876953125,-0.21338364481925964,0.6706750392913818,0.04662316292524338,379.9259948730469,19.180068969726562,-325.20477294921875
37,1.844,0.16119384765625,0.017120361328125,-1.0451202392578125,0.10947243124246597,1.7024962902069092,-0.026043051853775978,381.79144287109375,19.126693725585938,-326.2391357421875
38,1.894,0.1968536376953125,0.00299072265625,-0.88348388671875,-0.06198001280426979,3.172414541244507,-0.0700099766254425,385.26544189453125,18.383575439453125,-326.638671875
39,1.944,0.3744964599609375,0.041412353515625,-0.834136962890625,-0.17678755521774292,3.2845351696014404,-0.06863951683044434,391.8169860839844,17.396408081054688,-327.1014709472656
40,1.993,0.5230560302734375,0.08990478515625,-0.762481689453125,-0.052201151847839355,3.6093337535858154,0.03801529109477997,398.1786193847656,17.320571899414062,-325.99554443359375
41,2.043,0.6734771728515625,0.0666046142578125,-0.675750732421875,-0.1045016422867775,3.385031223297119,0.3531423509120941,404.52099609375,16.922775268554688,-323.3389892578125
42,2.093,0.6234893798828125,0.0212860107421875,-0.6458282470703125,-0.039801210165023804,4.0768938064575195,0.00398701848462224,409.11273193359375,16.950714111328125,-319.912841796875
43,2.143,1.14599609375,0.02069091796875,-0.455047607421875,0.03491510823369026,3.1738576889038086,0.07882077991962433,414.2928466796875,16.479598999023438,-315.09765625
44,2.193,0.8898773193359375,-0.0533599853515625,-0.2696685791015625,-0.009332248941063881,3.506560802459717,0.6236180663108826,417.3813171386719,16.715347290039062,-309.831298828125
45,2.243,0.9804534912109375,-0.061126708984375,-0.127349853515625,-0.2370210736989975,2.8844666481018066,0.4019961655139923,419.5313720703125,15.616607666015625,-303.74749755859375
46,2.292,0.9940185546875,-0.04290771484375,-0.0652618408203125,-0.03485731780529022,3.201043128967285,0.5889085531234741,420.49578857421875,15.113677978515625,-298.8252868652344
47,2.342,0.9127960205078125,-0.0782928466796875,0.1837615966796875,0.20698167383670807,2.9641804695129395,0.4029237627983093,420.646484375,14.535308837890625,-293.67041015625
48,2.392,0.8396148681640625,-0.1152496337890625,0.104705810546875,0.43076443672180176,4.115660190582275,0.07986234128475189,420.67462158203125,13.861572265625,-287.72802734375
49,2.442,0.8756561279296875,-0.0339508056640625,0.7188568115234375,0.6813005208969116,2.7919156551361084,0.0943552628159523,419.2771911621094,14.013824462890625,-281.51507568359375
50,2.492,0.8202056884765625,-0.0168914794921875,0.66485595703125,-0.0771123617887497,3.0103750228881836,0.24429309368133545,417.89422607421875,13.810562133789062,-275.88140869140625
51,2.542,0.7465972900390625,-0.0623779296875,0.8077239990234375,-0.3575437664985657,2.575939655303955,0.37073200941085815,415.2845764160156,14.2481689453125,-271.4173889160156
52,2.591,0.6101531982421875,-0.086944580078125,0.7190399169921875,-0.17095257341861725,3.4220359325408936,0.38728299736976624,413.0369873046875,13.614593505859375,-268.13726806640625
53,2.641,0.358367919921875,-0.116729736328125,0.9068603515625,-0.1742202639579773,2.772508382797241,0.2429833561182022,409.53582763671875,12.993072509765625,-263.83978271484375
54,2.691,0.37835693359375,-0.135162353515625,0.7177734375,0.11847418546676636,3.224679470062256,0.7436320781707764,406.324462890625,12.341659545898438,-260.732421875
55,2.741,0.0285797119140625,-0.112060546875,0.8841552734375,0.6948639750480652,3.1416711807250977,0.2746374309062958,401.889404296875,12.47332763671875,-258.0575256347656
56,2.791,0.0887908935546875,-0.057891845703125,1.0020904541015625,0.5253559350967407,1.3713444471359253,0.2579684257507324,398.3670654296875,12.978256225585938,-255.7811737060547
57,2.841,-0.0288543701171875,0.009124755859375,1.0281829833984375,0.5894595384597778,1.4486110210418701,0.12473154813051224,397.290771484375,13.821212768554688,-254.74789428710938
58,2.89,-0.0482025146484375,-0.045318603515625,1.1230316162109375,0.12601199746131897,-0.04421859234571457,0.13536794483661652,396.5355224609375,14.750335693359375,-254.21022033691406
59,2.94,-0.095703125,-0.148651123046875,1.0651397705078125,0.16826383769512177,-1.5050036907196045,-0.1793479174375534,397.622314453125,14.196578979492188,-254.36326599121094
60,2.99,0.4825897216796875,-0.0292816162109375,1.015655517578125,0.18397969007492065,-3.0392374992370605,0.12023293226957321,400.48431396484375,13.444183349609375,-254.84152221679688
61,3.04,0.34783935546875,-0.0385894775390625,1.2378997802734375,0.1879776269197464,-5.0102362632751465,0.2767956554889679,403.97967529296875,13.456344604492188,-256.75909423828125
62,3.09,0.305877685546875,-0.0778045654296875,0.89215087890625,-0.5759479999542236,-6.042776584625244,0.17761926352977753,408.6746826171875,12.021957397460938,-261.00848388671875
63,3.14,0.8759918212890625,-0.089630126953125,0.4304046630859375,0.042211104184389114,-4.745535850524902,0.02383049763739109,413.9327697753906,10.919769287109375,-266.15191650390625
64,3.19,0.716278076171875,-0.050201416015625,0.7627716064453125,0.08062773197889328,-7.28016471862793,0.6873543858528137,417.8983459472656,10.474212646484375,-272.3814697265625
65,3.239,0.9503021240234375,-0.0267333984375,0.1481475830078125,-0.12517575919628143,-4.970839977264404,0.20455500483512878,421.6505126953125,7.6949462890625,-282.8197937011719
66,3.289,0.9517059326171875,-0.054840087890625,0.0367584228515625,-0.3609803020954132,-6.502109050750732,0.10048080235719681,421.895751953125,8.200363159179688,-290.328125
67,3.339,0.9797515869140625,-0.083526611328125,-0.3775177001953125,0.2434949427843094,-5.654140949249268,0.6188978552818298,420.80224609375,8.169479370117188,-300.69598388671875
68,3.389,0.62994384765625,-0.1629180908203125,-0.4743194580078125,-0.33528026938438416,-5.423579692840576,0.09232886135578156,415.651123046875,8.781265258789062,-308.05712890625
69,3.439,0.750213623046875,-0.0537109375,-0.8702239990234375,-0.33489570021629333,-4.756763458251953,0.11949976533651352,409.63543701171875,8.995101928710938,-314.8602294921875
70,3.489,0.5147857666015625,-0.10906982421875,-0.9465179443359375,0.08551729470491409,-3.058882474899292,0.5184484720230103,402.9524230957031,10.1036376953125,-319.9483642578125
71,3.538,0.2231597900390625,-0.1094970703125,-0.9152679443359375,0.6685000061988831,-6.684783458709717,0.9019780158996582,397.24188232421875,9.800521850585938,-321.6303405761719
72,3.588,-0.060577392578125,-0.1521453857421875,-0.7345733642578125,0.30755701661109924,-2.110734701156616,0.6658528447151184,386.25714111328125,9.899429321289062,-321.800048828125
73,3.638,-0.230682373046875,-0.194671630859375,-1.12457275390625,0.03497476130723953,-5.098371505737305,0.852748453617096,380.8212890625,10.08026123046875,-320.5364990234375
74,3.688,-0.4429473876953125,-0.1392059326171875,-0.9248046875,-0.0796482264995575,-2.355463981628418,0.6025028824806213,371.38092041015625,12.384429931640625,-316.7103576660156
75,3.738,-0.3827056884765625,-0.15191650390625,-0.91839599609375,0.04477519541978836,-2.201179265975952,0.7968846559524536,366.8353271484375,13.465011596679688,-313.58294677734375
76,3.788,-0.6496124267578125,-0.0591278076171875,-0.7718505859375,-0.4207477569580078,-1.7655171155929565,0.9102420806884766,362.9643859863281,14.785202026367188,-310.56085205078125
77,3.837,-0.5991668701171875,-0.055816650390625,-0.8821563720703125,-0.015561116859316826,-1.884021282196045,0.750756025314331,359.6552429199219,17.131622314453125,-307.99127197265625
78,3.887,-0.8663330078125,-0.0425567626953125,-0.6654052734375,-0.08245812356472015,-1.769971489906311,0.49386483430862427,356.35748291015625,18.929718017578125,-304.8187255859375
79,3.937,-0.5185394287109375,-0.0479583740234375,-0.7241973876953125,-0.14526425302028656,-1.5646090507507324,0.5808146595954895,354.3418884277344,19.836273193359375,-302.23138427734375
80,3.987,-0.9512176513671875,0.031494140625,-0.4727630615234375,-0.09442397207021713,-1.510712742805481,0.6007830500602722,351.84246826171875,21.318099975585938,-299.41876220703125
81,4.037,-0.688323974609375,0.05084228515625,-0.4922637939453125,-0.03943076357245445,-1.5200554132461548,1.0013149976730347,349.57513427734375,22.189361572265625,-296.81658935546875
82,4.087,-1.0217132568359375,0.1688385009765625,-0.2094268798828125,-0.25080451369285583,-1.8109385967254639,0.9209210872650146,346.8088684082031,24.45904541015625,-292.5643310546875
83,4.136,-0.879608154296875,0.2153472900390625,-0.334014892578125,-0.47674018144607544,-1.5664044618606567,0.8983478546142578,344.50799560546875,27.166900634765625,-288.29241943359375
84,4.186,-0.9163665771484375,0.223724365234375,-0.2989349365234375,-0.6010075211524963,-1.363134741783142,0.9997088313102722,343.4395751953125,30.169952392578125,-283.0279235839844
85,4.236,-1.1013336181640625,0.08160400390625,0.1394805908203125,-0.14246021211147308,-2.6438777446746826,0.3886401653289795,342.8198547363281,33.1622314453125,-277.80596923828125
86,4.286,-0.9232635498046875,0.1823272705078125,-0.0039520263671875,-0.5962199568748474,-1.2249749898910522,0.28100690245628357,343.63818359375,34.821044921875,-271.4064636230469
87,4.336,-1.0343170166015625,0.2936553955078125,-0.07098388671875,0.47213611006736755,-2.0860071182250977,0.19506029784679413,347.4386291503906,34.175628662109375,-269.16339111328125
88,4.386,-0.9792938232421875,0.2715911865234375,0.2021026611328125,-0.12873134016990662,-1.804793119430542,-0.10896722972393036,351.2592468261719,33.51225280761719,-266.95916748046875
89,4.435,-1.0330657958984375,0.185455322265625,0.191192626953125,0.1767774373292923,-3.6004889011383057,-0.5776497721672058,355.01666259765625,31.943435668945312,-265.151611328125
90,4.485,-0.867767333984375,0.2516326904296875,0.420654296875,-0.16241927444934845,-2.3890719413757324,-0.6393948793411255,358.79656982421875,30.585891723632812,-261.1893615722656
91,4.535,-0.871337890625,0.2509765625,0.4568328857421875,-0.44471725821495056,-2.3647243976593018,0.8776918649673462,362.704345703125,27.15643310546875,-259.6324157714844
92,4.585,-0.8474884033203125,0.20941162109375,0.4936370849609375,-0.45135653018951416,-2.594111442565918,0.4117622375488281,365.2591857910156,26.811248779296875,-258.0960388183594
93,4.635,-0.69708251953125,0.222015380859375,0.62445068359375,-0.6198027729988098,-2.626671314239502,0.6155079007148743,368.57098388671875,25.764602661132812,-255.72425842285156
94,4.685,-0.526336669921875,0.1383514404296875,0.7010345458984375,-0.24819143116474152,-3.217482089996338,0.9469748139381409,371.8792419433594,24.738906860351562,-254.0009002685547
95,4.734,-0.519561767578125,0.1080169677734375,0.79937744140625,-0.12123614549636841,-2.6749465465545654,0.4507288336753845,376.869140625,24.337081909179688,-251.9283905029297
96,4.784,-0.29949951171875,0.2653045654296875,0.836456298828125,-0.5506756901741028,-2.444459915161133,0.17616650462150574,381.7169494628906,24.2503662109375,-249.57400512695312
97,4.834,-0.2114105224609375,0.214111328125,1.1386566162109375,-0.2614595592021942,0.6145284175872803,-0.3834770917892456,386.08917236328125,23.413558959960938,-248.6614990234375
98,4.884,-0.1921234130859375,0.220672607421875,0.7803955078125,-0.1622919738292694,2.4892749786376953,-0.052023254334926605,385.68768310546875,23.188613891601562,-248.42185974121094
99,4.934,-0.3962554931640625,0.2443695068359375,1.059814453125,0.14878495037555695,4.20972204208374,0.308170884847641,381.1829833984375,23.148681640625,-249.48931884765625
100,4.984,-0.6707305908203125,0.3014678955078125,0.7534942626953125,-0.206277534365654,4.4972968101501465,0.3172922134399414,373.50946044921875,23.660629272460938,-252.399169921875
101,5.034,-0.8558197021484375,0.234222412109375,0.5193634033203125,0.08582355827093124,2.9602503776550293,-0.34006384015083313,366.2024841308594,23.695404052734375,-257.71923828125
102,5.083,-0.902252197265625,0.1897125244140625,0.456268310546875,0.40217354893684387,2.0665595531463623,-0.7505384683609009,361.9002990722656,23.059967041015625,-261.7924499511719
103,5.133,-0.96746826171875,0.1166839599609375,0.2847137451171875,0.7427103519439697,2.3498318195343018,-1.2305103540420532,359.58758544921875,22.44842529296875,-264.294921875
104,5.183,-0.900299072265625,0.172149658203125,0.349151611328125,0.08789177238941193,3.2851104736328125,-1.35306715965271,357.0594482421875,20.351593017578125,-267.9715881347656
105,5.233,-0.8277130126953125,0.1110992431640625,0.1485137939453125,-0.28359150886535645,3.529459238052368,-0.9080100655555725,354.7247314453125,17.609725952148438,-274.62701416015625
106,5.283,-0.9100799560546875,-0.0139923095703125,-0.1091156005859375,-0.4611513614654541,3.446911334991455,-0.5177134275436401,353.0653076171875,16.349472045898438,-281.0584411621094
107,5.333,-0.8763580322265625,-0.0454864501953125,-0.28265380859375,-0.21870730817317963,3.241534471511841,-0.4377126395702362,352.9071350097656,15.970413208007812,-287.1400146484375
108,5.382,-0.9131927490234375,-0.033050537109375,-0.4010467529296875,-0.20794974267482758,2.845825433731079,-0.3016517162322998,353.7054748535156,15.209304809570312,-293.31396484375
109,5.432,-0.88043212890625,-0.044647216796875,-0.55377197265625,-0.13751205801963806,2.5075738430023193,-0.19591118395328522,354.7696228027344,14.874160766601562,-298.4455261230469
110,5.482,-0.8080902099609375,0.0355224609375,-0.58306884765625,0.19957515597343445,2.27614164352417,-0.5451576113700867,356.2064208984375,14.511444091796875,-302.6850280761719
111,5.532,-0.645751953125,-0.11444091796875,-0.7232513427734375,0.4838961064815521,1.294852375984192,-0.35837411880493164,358.35504150390625,13.180023193359375,-306.2576904296875
112,5.582,-0.691375732421875,-0.0389404296875,-0.704681396484375,0.2380029708147049,1.2785670757293701,-0.26287955045700073,359.52008056640625,12.189315795898438,-307.4421691894531
113,5.632,-0.6241302490234375,-0.0966033935546875,-0.7750701904296875,-0.20070646703243256,1.922110915184021,-0.3338663876056671,360.5408935546875,11.9041748046875,-309.04083251953125
114,5.681,-0.434112548828125,-0.0801849365234375,-0.8626861572265625,-0.3299424946308136,1.715375304222107,-0.04711344838142395,362.52850341796875,11.465255737304688,-312.354736328125
115,5.731,-0.4248809814453125,-0.0512237548828125,-0.899169921875,-0.279859334230423,1.3835116624832153,0.38663533329963684,363.6488037109375,11.82916259765625,-314.7087707519531
116,5.781,-0.54864501953125,0.0386199951171875,-1.0023651123046875,-0.47265541553497314,1.6042972803115845,0.881673276424408,362.23382568359375,13.06396484375,-316.55126953125
117,5.831,-0.3649139404296875,0.054443359375,-0.8107452392578125,-0.9712764024734497,2.644282341003418,0.27368080615997314,361.50262451171875,15.669692993164062,-318.50433349609375
118,5.881,-0.1981048583984375,0.113739013671875,-1.0355377197265625,-2.212696075439453,2.4102516174316406,0.4466608464717865,365.05340576171875,18.576446533203125,-321.666748046875
119,5.931,-0.06390380859375,0.207305908203125,-0.9775238037109375,-1.8846114873886108,0.9770916700363159,0.7821016907691956,367.6998291015625,24.148605346679688,-323.01519775390625
120,5.98,-0.0264129638671875,0.3860931396484375,-0.872833251953125,-3.2642343044281006,1.9863746166229248,0.5037326812744141,368.09954833984375,30.451904296875,-323.27691650390625
121,6.03,-0.0500030517578125,0.5188751220703125,-1.055511474609375,-2.845742702484131,-0.8195564150810242,-0.15111307799816132,369.2618408203125,37.77024841308594,-322.5777587890625
122,6.08,0.227294921875,0.5694732666015625,-1.01824951171875,-1.7902426719665527,0.028897695243358612,0.5215350985527039,367.0517578125,42.941162109375,-317.67694091796875
123,6.13,0.132720947265625,0.6217498779296875,-0.8153533935546875,-2.0223677158355713,0.31982672214508057,0.8040480017662048,366.02838134765625,47.618804931640625,-315.920654296875
124,6.18,0.0586090087890625,0.621917724609375,-0.8038482666015625,-1.7901675701141357,-0.6787673234939575,0.4627157151699066,364.4222717285156,54.37580871582031,-315.2230224609375
125,6.23,-0.106201171875,0.7447357177734375,-0.6263275146484375,-1.9429283142089844,-0.03325382620096207,-0.026072613894939423,361.8283996582031,61.94462585449219,-312.44281005859375
126,6.279,0.0348358154296875,0.895904541015625,-0.7078704833984375,-2.0025033950805664,-1.6142199039459229,-0.5184522271156311,360.7454833984375,66.482177734375,-308.76416015625
127,6.329,0.2545318603515625,0.923370361328125,-0.5425872802734375,-2.0549073219299316,-0.008194014430046082,0.1583704650402069,360.64874267578125,67.40771484375,-303.626708984375
128,6.379,-0.2211151123046875,0.8644256591796875,-0.28546142578125,-2.0203142166137695,0.12180633097887039,0.1599302738904953,365.0216064453125,69.77699279785156,-301.4068908691406
129,6.429,-0.0575103759765625,0.9457855224609375,-0.23052978515625,-2.4040160179138184,-0.05083681643009186,0.17965711653232574,368.6662902832031,70.49052429199219,-299.0111999511719
130,6.479,0.008697509765625,1.0604400634765625,-0.1307373046875,-2.964646339416504,0.07003208249807358,0.32372692227363586,370.5699768066406,72.18649291992188,-294.3600769042969
131,6.529,0.0177001953125,1.021392822265625,0.066864013671875,-3.2443292140960693,0.4819850027561188,0.3525117039680481,374.5033874511719,71.91943359375,-290.24969482421875
132,6.579,0.0240020751953125,0.9709625244140625,0.208740234375,-3.5703306198120117,0.4857291579246521,0.3505236506462097,378.0054931640625,72.05661010742188,-286.634521484375
133,6.628,0.0312957763671875,0.9894256591796875,0.37200927734375,-3.6427202224731445,0.8859471082687378,0.30183443427085876,380.145751953125,72.3387451171875,-283.38427734375
134,6.678,0.04754638671875,0.9123382568359375,0.373565673828125,-3.5112087726593018,0.573746919631958,0.19941723346710205,382.33099365234375,72.05345153808594,-279.91912841796875
135,6.728,0.061126708984375,0.8153533935546875,0.5296478271484375,-3.101602077484131,0.36275556683540344,0.16877250373363495,383.14154052734375,72.41374206542969,-276.5467224121094
136,6.778,0.1053924560546875,0.711700439453125,0.6556549072265625,-2.7311418056488037,-0.1336486041545868,0.37733450531959534,385.01055908203125,71.69902038574219,-273.153564453125
137,6.828,0.0315093994140625,0.6494293212890625,0.898468017578125,-3.1212987899780273,0.03099733032286167,0.4480811059474945,386.3827819824219,70.84660339355469,-269.7420654296875
138,6.878,-0.02484130859375,0.412384033203125,0.7999725341796875,-3.4588699340820312,0.9868583083152771,0.27652639150619507,386.7536315917969,69.66436767578125,-265.1116943359375
139,6.927,-0.0208892822265625,0.2928924560546875,0.9293212890625,-3.56356143951416,1.0353957414627075,0.2145671546459198,386.50146484375,67.76443481445312,-260.557373046875
140,6.977,-0.108917236328125,0.037628173828125,0.8524322509765625,-3.5381276607513428,1.0251654386520386,0.5774604082107544,386.30487060546875,64.28742980957031,-255.93728637695312
141,7.027,-0.1497650146484375,-0.05718994140625,0.8926544189453125,-3.1023969650268555,1.4281848669052124,0.7329855561256409,385.1810302734375,60.83149719238281,-252.19723510742188
142,7.077,-0.25909423828125,-0.2235565185546875,0.81683349609375,-1.3094589710235596,0.02749181166291237,0.3947129547595978,384.2349853515625,56.8951416015625,-249.95950317382812
143,7.127,-0.222320556640625,-0.1707000732421875,0.9557037353515625,0.3146607279777527,-0.06793724000453949,0.12122655659914017,384.61944580078125,55.28724670410156,-249.59397888183594
144,7.177,-0.181427001953125,-0.1609039306640625,0.9055938720703125,1.341251254081726,-0.03382907062768936,-0.1355314552783966,384.44305419921875,55.957275390625,-250.22061157226562
145,7.226,-0.073486328125,0.0113677978515625,1.0773773193359375,2.245852470397949,-0.5564318299293518,-0.17318935692310333,384.642822265625,57.69822692871094,-252.50611877441406
146,7.276,-0.1360015869140625,0.0423431396484375,0.9931640625,2.728408098220825,-0.6633902192115784,-0.19361527264118195,385.6805419921875,59.471038818359375,-255.34774780273438
147,7.326,0.0325775146484375,0.1834869384765625,1.0415191650390625,2.75105357170105,-0.6782967448234558,-0.2834836542606354,386.0413513183594,61.32508850097656,-259.39434814453125
148,7.376,0.0323486328125,0.248046875,0.9669342041015625,3.0087292194366455,-0.8298436403274536,-0.29839521646499634,387.4517822265625,60.650390625,-265.8600769042969
149,7.426,0.03955078125,0.46002197265625,0.862274169921875,3.182983636856079,-1.2523187398910522,-0.153582364320755,387.774169921875,63.44007873535156,-269.404052734375
150,7.476,0.1212310791015625,0.5455169677734375,0.7623138427734375,3.5862863063812256,-1.4282625913619995,-0.17375048995018005,387.635498046875,66.04188537597656,-272.6964111328125
151,7.525,0.0914459228515625,0.815887451171875,0.67059326171875,3.69618558883667,-1.041425108909607,-0.12098394334316254,387.59271240234375,67.93069458007812,-277.9628601074219
152,7.575,0.12213134765625,0.783233642578125,0.6503143310546875,3.2196412086486816,-0.4968734085559845,-0.06691005825996399,386.779541015625,69.36151123046875,-282.4120788574219
153,7.625,0.1605224609375,0.8687744140625,0.4689788818359375,3.0084095001220703,-0.6724681258201599,-0.07366064190864563,385.48883056640625,69.98866271972656,-286.68707275390625
154,7.675,0.1107025146484375,0.9105224609375,0.234710693359375,2.4094507694244385,-0.2704378664493561,0.0024085629265755415,384.43231201171875,69.6900634765625,-290.24212646484375
155,7.725,0.126861572265625,0.9578094482421875,0.1592559814453125,2.2266430854797363,0.006150037981569767,0.1612996757030487,383.6363525390625,68.94378662109375,-293.43804931640625
156,7.775,0.1406097412109375,0.97589111328125,0.0373382568359375,2.049694776535034,-0.06265699118375778,0.09179330617189407,382.56976318359375,68.30941772460938,-296.2132568359375
157,7.824,0.1682891845703125,0.9579315185546875,-0.043670654296875,2.132275104522705,-0.39242929220199585,-0.07275330275297165,381.4367370605469,68.32783508300781,-297.66082763671875
158,7.874,0.1522369384765625,0.988677978515625,-0.2419281005859375,2.3029234409332275,-0.5368312001228333,-0.2814130485057831,378.82049560546875,69.61100769042969,-298.1634521484375
159,7.924,0.119781494140625,1.017303466796875,-0.2793731689453125,2.4298951625823975,-0.8448370099067688,-0.43722739815711975,375.7114562988281,68.64553833007812,-300.09710693359375
160,7.974,0.058135986328125,1.0019989013671875,-0.39825439453125,2.1029675006866455,-0.35966789722442627,-0.5207276344299316,372.56591796875,66.97451782226562,-302.47711181640625
161,8.024,0.026763916015625,0.898651123046875,-0.5090484619140625,2.1859476566314697,-0.16676102578639984,-0.5198759436607361,370.0972900390625,64.83120727539062,-305.22430419921875
162,8.074,-0.0028839111328125,0.8780975341796875,-0.5411224365234375,2.02272367477417,0.20698221027851105,-0.4579949975013733,368.2519836425781,62.609893798828125,-308.66204833984375
163,8.123,0.032470703125,0.70050048828125,-0.721466064453125,2.369144916534424,0.2762765884399414,-0.4031200408935547,367.5342712402344,59.63946533203125,-312.80487060546875
164,8.173,0.0106964111328125,0.636993408203125,-0.706085205078125,2.57411789894104,-0.14686959981918335,-0.6104812026023865,367.1985778808594,55.6744384765625,-317.09716796875
165,8.223,-0.04412841796875,0.638885498046875,-0.92718505859375,2.8362345695495605,0.45960327982902527,-0.8928942680358887,366.412841796875,50.01179504394531,-320.6075744628906
166,8.273,-0.054534912109375,0.5110626220703125,-0.8909454345703125,2.658712148666382,0.6278801560401917,-0.7144800424575806,368.190185546875,42.48652648925781,-325.38702392578125
167,8.323,-0.0341796875,0.4195098876953125,-0.99298095703125,2.632232904434204,0.5291626453399658,-0.4901718497276306,371.9397888183594,34.58642578125,-330.026123046875
168,8.373,0.0019989013671875,0.2437591552734375,-1.0320281982421875,2.5897278785705566,0.7097569108009338,-0.33705446124076843,376.28851318359375,26.406219482421875,-332.95355224609375
169,8.423,0.067779541015625,0.1273956298828125,-1.011260986328125,2.883854627609253,0.14811836183071136,-0.08487627655267715,380.5821533203125,18.221694946289062,-333.7659912109375
170,8.472,0.090179443359375,-0.0462188720703125,-1.0433349609375,2.6829020977020264,0.12266173958778381,0.01353658176958561,383.14312744140625,11.961395263671875,-332.1455383300781
171,8.522,0.1233673095703125,-0.14312744140625,-0.9849700927734375,2.618177652359009,-0.6058827042579651,0.015014635398983955,384.955078125,5.9900665283203125,-329.22479248046875
172,8.572,0.0330810546875,-0.2980194091796875,-0.9068145751953125,2.577714681625366,0.3305102586746216,-0.09306816011667252,385.9371337890625,0.8209228515625,-325.60552978515625
173,8.622,0.0443572998046875,-0.405364990234375,-0.9052734375,2.6361286640167236,-0.08351593464612961,0.2678455710411072,387.4227294921875,-3.5478057861328125,-321.3223876953125
174,8.672,-0.0263824462890625,-0.4888916015625,-0.8837738037109375,3.183391809463501,0.30877435207366943,0.2836277186870575,388.22796630859375,-7.5655975341796875,-316.3253173828125
175,8.722,0.1003570556640625,-0.5982513427734375,-0.7499847412109375,3.5949065685272217,-0.43360763788223267,0.36962252855300903,388.7005615234375,-10.239227294921875,-309.0732727050781
176,8.771,-0.0127716064453125,-0.7163238525390625,-0.589111328125,3.424541473388672,-0.2756499648094177,0.27090153098106384,388.41021728515625,-11.600021362304688,-300.8269348144531
177,8.821,0.0062255859375,-0.906707763671875,-0.37322998046875,3.1926848888397217,0.000179230744834058,0.06563892960548401,388.6312561035156,-11.323760986328125,-293.2020263671875
178,8.871,-0.0057373046875,-0.9021148681640625,-0.3911895751953125,3.2548859119415283,-0.010978614911437035,0.1788989156484604,388.6303405761719,-9.566970825195312,-285.9259948730469
179,8.921,-0.0225677490234375,-0.9638671875,-0.2261505126953125,3.8216707706451416,0.20199011266231537,0.028421787545084953,388.6327209472656,-6.7770538330078125,-279.41253662109375
180,8.971,-0.084381103515625,-1.007232666015625,0.0069427490234375,4.161065578460693,0.4432107210159302,0.06370840221643448,388.8177795410156,-1.78094482421875,-272.24005126953125
181,9.021,-0.0377197265625,-0.782867431640625,0.2038116455078125,4.459574222564697,0.820544958114624,0.24555915594100952,388.1147766113281,5.7790679931640625,-265.02313232421875
182,9.07,-0.0227203369140625,-0.637847900390625,0.378204345703125,4.53554630279541,1.023388385772705,0.32290828227996826,386.582275390625,14.461898803710938,-259.13153076171875
183,9.12,-0.1550750732421875,-0.5731201171875,0.626708984375,4.326542377471924,-0.12692572176456451,0.652576208114624,385.56622314453125,22.778945922851562,-256.09686279296875
184,9.17,-0.1866455078125,-0.4662017822265625,0.8054656982421875,4.190560340881348,-0.6363370418548584,0.4682372510433197,385.3353271484375,30.2578125,-254.53823852539062
185,9.22,0.0089111328125,-0.2300262451171875,1.0126800537109375,4.517849445343018,-0.3885631859302521,-0.016402941197156906,385.96759033203125,36.26091003417969,-255.25625610351562
186,9.27,-0.0176849365234375,-0.1259765625,1.168304443359375,2.968658924102783,-0.3184988796710968,-0.03394891321659088,385.80755615234375,41.77056884765625,-257.15826416015625
187,9.32,-0.125885009765625,0.00384521484375,1.123565673828125,1.4227842092514038,-0.46228134632110596,0.271371066570282,385.7589111328125,44.663726806640625,-259.0039367675781
188,9.369,0.0180511474609375,0.00640869140625,1.174224853515625,-0.4433920979499817,-0.5860562920570374,-0.2788292467594147,386.66387939453125,45.81378173828125,-260.140869140625
189,9.419,0.092193603515625,-0.08770751953125,1.222442626953125,-2.3535213470458984,0.1409216970205307,-0.2848815321922302,387.29827880859375,44.95269775390625,-259.70318603515625
190,9.469,0.03753662109375,-0.081329345703125,1.235137939453125,-3.6552042961120605,-0.08163920044898987,-0.7467519640922546,388.69818115234375,41.9398193359375,-257.0503234863281
191,9.519,0.079254150390625,-0.6082916259765625,0.8741607666015625,-4.358237266540527,0.1469963639974594,-1.2700051069259644,390.1041259765625,37.638946533203125,-254.4381866455078
192,9.569,0.0265350341796875,-0.515533447265625,0.6922454833984375,-4.364171028137207,-0.07423800975084305,-0.8103448152542114,390.986083984375,32.136932373046875,-253.18258666992188
193,9.619,-0.0237579345703125,-0.7464141845703125,0.390869140625,-4.473759174346924,-0.5736573934555054,-0.26762479543685913,391.1361083984375,27.702560424804688,-252.48934936523438
194,9.668,0.0692901611328125,-0.876556396484375,0.196502685546875,-3.2456040382385254,-0.8869221210479736,-0.26215171813964844,391.78863525390625,21.912948608398438,-254.3572998046875
195,9.718,0.0989990234375,-0.8836212158203125,0.2112884521484375,-3.4020462036132812,-0.9625361561775208,0.4848119616508484,393.302978515625,16.3692626953125,-258.34661865234375
196,9.768,0.0756988525390625,-0.86602783203125,0.22528076171875,-3.486236333847046,-0.2672479450702667,0.4230082631111145,395.48089599609375,10.913894653320312,-262.669677734375
197,9.818,-0.0036163330078125,-0.9918060302734375,0.0316009521484375,-3.660602331161499,-0.49457696080207825,0.10515518486499786,396.30596923828125,6.1159820556640625,-268.97442626953125
198,9.868,0.11383056640625,-0.9249114990234375,-0.2076873779296875,-4.353648662567139,0.07649104297161102,-0.12382473796606064,396.2423400878906,2.064849853515625,-276.3289794921875
199,9.918,0.122467041015625,-0.837188720703125,-0.483795166015625,-4.298132419586182,-0.4200635850429535,0.36059626936912537,395.41522216796875,0.4322662353515625,-284.4216003417969
200,9.968,0.104339599609375,-0.746337890625,-0.61102294921875,-3.9035844802856445,-0.3326892852783203,0.4394032061100006,394.2823486328125,0.10028076171875,-293.37591552734375
201,10.017,0.067413330078125,-0.6157989501953125,-0.775787353515625,-3.3495311737060547,-0.1841418743133545,0.23088806867599487,392.6669616699219,1.4348297119140625,-300.99755859375
202,10.067,0.037078857421875,-0.539215087890625,-0.9091339111328125,-2.666386842727661,-0.5087665915489197,0.29950547218322754,391.42877197265625,3.5845489501953125,-307.3957214355469
203,10.117,-0.0191802978515625,-0.4365234375,-0.868621826171875,-2.001926898956299,-0.30306878685951233,0.09526792913675308,389.4105224609375,6.3702239990234375,-312.00311279296875
204,10.167,-0.0613250732421875,-0.3567352294921875,-0.945648193359375,-1.4727978706359863,-0.32281559705734253,0.0011470235185697675,388.83514404296875,8.540817260742188,-315.611328125
205,10.217,-0.0418243408203125,-0.2538909912109375,-0.9437255859375,-1.3480479717254639,-0.2319144606590271,-0.1090702936053276,388.0245361328125,10.624649047851562,-317.89666748046875
206,10.267,-0.0572967529296875,-0.17913818359375,-1.0113067626953125,-1.2077542543411255,-0.3485901951789856,0.010066748596727848,387.162353515625,12.62237548828125,-320.3896484375
207,10.316,-0.059722900390625,-0.110992431640625,-0.89263916015625,-1.0837459564208984,-0.3627648949623108,-0.0018303906545042992,385.97637939453125,14.592636108398438,-321.490966796875
208,10.366,-0.081878662109375,-0.0487518310546875,-0.969085693359375,-1.4971975088119507,-0.13247868418693542,-0.04694540426135063,384.74176025390625,16.916122436523438,-323.53564453125
209,10.416,-0.0525054931640625,-0.0080413818359375,-0.9214324951171875,-0.9001210331916809,-0.24027784168720245,0.1355879157781601,383.1981201171875,19.90887451171875,-324.86566162109375
210,10.466,-0.1159210205078125,0.041229248046875,-1.06878662109375,-0.9700524210929871,0.030643396079540253,0.09793508797883987,381.341796875,22.208709716796875,-325.6253662109375
211,10.516,-0.0888214111328125,0.0599365234375,-1.0651702880859375,-0.19129405915737152,0.10292185097932816,0.1446884721517563,380.3463134765625,24.439163208007812,-326.0048828125
212,10.566,-0.0661163330078125,0.0512847900390625,-1.086212158203125,0.23953455686569214,0.1392686814069748,0.07847776263952255,380.2828674316406,24.402542114257812,-326.07550048828125
213,10.615,-0.049346923828125,0.07440185546875,-0.9951629638671875,0.4237304925918579,-0.026737604290246964,0.025559687986969948,380.25531005859375,24.21795654296875,-325.6405334472656
214,10.665,-0.0794830322265625,-0.011444091796875,-1.032501220703125,0.5412512421607971,0.17912954092025757,-0.13960076868534088,380.2764892578125,23.396392822265625,-324.8988037109375
215,10.715,-0.0438385009765625,-0.0074920654296875,-0.987213134765625,0.42182978987693787,0.23238344490528107,-0.15967541933059692,381.10064697265625,22.440505981445312,-324.1419677734375
216,10.765,-0.03765869140625,-0.0400848388671875,-0.9816741943359375,0.30799058079719543,0.30946704745292664,-0.09029367566108704,381.6745910644531,21.788589477539062,-323.5676574707031
217,10.815,-0.0382843017578125,-0.120513916015625,-1.050048828125,-0.011741344816982746,0.1699908971786499,-0.004594751633703709,382.35101318359375,21.057998657226562,-323.28302001953125
