index,time,acc x,acc y,acc z,sin ori x,sin ori y,sin ori z,user input
0,0,0.2629241943359375,-0.5792388916015625,-0.71392822265625,-0.7765544786928156,0,0.27496449136037576,0
1,0.05,0.2248077392578125,-0.6327667236328125,-0.6822662353515625,-0.7332039372834817,-0.015004538195774622,0.2348356928592509,0
2,0.1,0.20281982421875,-0.6225433349609375,-0.7744903564453125,-0.7794180142250935,-0.04190231498228039,0.19998693533193734,0
3,0.149,0.1938629150390625,-0.63592529296875,-0.7287445068359375,-0.7534604661680896,-0.06282527058401847,0.19652899471206134,0
4,0.199,0.1973876953125,-0.676422119140625,-0.6781158447265625,-0.7079903999342383,-0.057376689870681556,0.20184206068830857,0
5,0.249,0.287353515625,-0.6547088623046875,-0.6934356689453125,-0.7271191927003676,-0.05452025785493702,0.28849987340779254,0
6,0.299,0.196746826171875,-0.6549072265625,-0.704833984375,-0.7325765501977697,-0.06765809156162012,0.2003449009475821,0
7,0.349,0.198760986328125,-0.6834716796875,-0.73699951171875,-0.733232375990856,-0.1030015954903894,0.19398862135321124,0
8,0.399,0.1608734130859375,-0.6093292236328125,-0.663421630859375,-0.7364942364436705,-0.12170918084187439,0.17581104827604646,0
9,0.448,0.145965576171875,-0.6079559326171875,-0.77520751953125,-0.7868780449650636,-0.15029142373128923,0.14656308134322005,0
10,0.498,0.189239501953125,-0.553466796875,-0.8026275634765625,-0.8232460786408216,-0.16414936720739018,0.19054462060720442,0
11,0.548,0.172332763671875,-0.5482177734375,-0.8144073486328125,-0.8295599169086976,-0.1587418548173988,0.17289553490602652,0
12,0.598,0.1690521240234375,-0.533599853515625,-0.9457550048828125,-0.870940227581775,-0.10911762322421392,0.15382620260857416,0
13,0.648,0.2654571533203125,-0.565032958984375,-0.752593994140625,-0.799700268012897,-0.08364166699611032,0.27147918456874315,0
14,0.698,0.183624267578125,-0.5724334716796875,-0.8317413330078125,-0.8237591765736424,-0.10181949911039305,0.1789272075073025,0
15,0.747,0.1335906982421875,-0.6265411376953125,-0.771484375,-0.7762567467307192,-0.13297566170630584,0.13321897554284454,0
16,0.797,0.0385589599609375,-0.6094207763671875,-0.93792724609375,-0.7743119995801574,-0.17720693002148874,0.10499554467042105,0
17,0.847,0.1996612548828125,-0.446807861328125,-0.9481353759765625,-0.9045882818294225,-0.15819774502983905,0.1871261220633412,0
18,0.897,0.2107086181640625,-0.4859466552734375,-0.921417236328125,-0.8845261344535087,-0.129841440899223,0.1982572989814371,0
19,0.947,0.22625732421875,-0.5243377685546875,-0.8309173583984375,-0.8456966053257392,-0.07853454514589743,0.22440839588339093,0
20,0.997,0.2013702392578125,-0.6229095458984375,-0.646331787109375,-0.7200329515546566,-0.0029173817079981876,0.21889219647160982,0
21,1.046,0.1441802978515625,-0.718505859375,-0.5769500732421875,-0.626113649474884,0.0039174069106582025,0.1545854992560829,0
22,1.096,0.084991455078125,-0.7440338134765625,-0.5915985107421875,-0.6223646852537666,-0.033257760912037054,0.08905618212824337,0
23,1.146,0.1566009521484375,-0.681854248046875,-0.6748046875,-0.7034229697803919,-0.04674479288571238,0.1611098363497714,0
24,1.196,0.0921630859375,-0.68218994140625,-0.811248779296875,-0.7653604742843709,-0.04052327810496935,0.08662304821555124,0
25,1.246,0.212127685546875,-0.60614013671875,-0.7675933837890625,-0.7848104789095862,-0.04083405124482857,0.21195780340575796,0
26,1.296,0.25439453125,-0.58984375,-0.6212005615234375,-0.7251724114986222,-0.03097097939392359,0.2846847666887545,0
27,1.345,0.155609130859375,-0.5621337890625,-0.7337188720703125,-0.7938069259584504,-0.016829652145632364,0.1660165351504158,0
28,1.395,0.189422607421875,-0.52459716796875,-1.0042877197265625,-0.8136671760117394,-0.01305927927410446,0.1441784658199465,0
29,1.445,0.3317413330078125,-0.4654693603515625,-1.074371337890625,-0.8142376974213785,0.03678056638820919,0.13474572180909555,0
30,1.495,0.35205078125,-0.53302001953125,-0.7828521728515625,-0.8265922308949545,0.09205162092114808,0.34842723143663173,0
31,1.545,0.374603271484375,-0.53509521484375,-0.6877288818359375,-0.7892437708102933,0.13156067943331073,0.3949486955044542,0
32,1.595,0.3647613525390625,-0.532806396484375,-0.6385040283203125,-0.7677954833834418,0.15820075306983605,0.4016813333074053,0
33,1.645,0.42315673828125,-0.5277252197265625,-0.587554931640625,-0.7439701041794534,0.167801743226357,0.47228481407252987,0
34,1.694,0.393310546875,-0.5078277587890625,-0.7120819091796875,-0.8141670447652731,0.1635730972618847,0.4101342040552257,0
35,1.744,0.392120361328125,-0.526336669921875,-0.7680206298828125,-0.8248821326835062,0.15599306675214647,0.38813443526701197,0
36,1.794,0.3948822021484375,-0.5313568115234375,-0.8444671630859375,-0.846388593380517,0.1390323571941415,0.3680061276125636,0
37,1.844,0.3575897216796875,-0.600677490234375,-0.7814178466796875,-0.7928265294265904,0.14665552124483944,0.34105731294668595,0
38,1.894,0.39398193359375,-0.564849853515625,-0.8582916259765625,-0.7774040520185059,0.13219351773460825,0.33240771215326387,0
39,1.944,0.4401092529296875,-0.5229034423828125,-0.812530517578125,-0.840913619529971,0.07355408010072534,0.41450995567550175,0
40,1.993,0.4176025390625,-0.571197509765625,-0.4593658447265625,-0.6266959946504861,-0.011448977486774375,0.49501930567527686,0
41,2.043,0.2641143798828125,-0.6766204833984375,-0.0976409912109375,-0.1428273904046453,-0.17023197763078965,0.36038131759055986,0
42,2.093,0.020965576171875,-0.7138671875,-0.4827880859375,-0.5602121867348098,-0.21412377105164596,0.024320602591252363,0
43,2.143,-0.014984130859375,-0.6764984130859375,-0.99774169921875,-0.6322400712182408,-0.256027556917452,0.024707257244232752,0
44,2.193,0.0117034912109375,-0.662841796875,-1.216796875,-0.610386746459159,-0.309222995405356,0.013959841089758507,0
45,2.243,0.054534912109375,-0.7276763916015625,-0.895538330078125,-0.5506407967835446,-0.38869831869450316,0.016770914258517282,0
46,2.292,-0.0395050048828125,-0.690673828125,-0.7400665283203125,-0.7310823356133599,-0.4104778209168802,-0.038995741952628914,0
47,2.342,-0.025054931640625,-0.607391357421875,-0.8923187255859375,-0.8266616457254203,-0.39073628010141276,-0.023205131991972622,0
48,2.392,-0.2143707275390625,-0.6845245361328125,-0.8712921142578125,-0.8098936717658808,-0.3540698818354001,0.00540524115405565,0
49,2.442,-0.037872314453125,-0.6633453369140625,-0.606231689453125,-0.6746143339809615,-0.32378865427522485,-0.04210691607365627,0
50,2.492,-0.3748321533203125,-0.829345703125,-0.553558349609375,-0.5551591992811407,-0.2917975428697697,-0.3518751531732326,0
51,2.542,-0.05462646484375,-0.690704345703125,-0.5555267333984375,-0.6267313777164476,-0.268374756529738,-0.061511511710600174,0
52,2.591,0.0175628662109375,-0.9418792724609375,-0.433349609375,-0.4179733876403919,-0.2707554778304637,0.01693726616974266,0
53,2.641,-0.232086181640625,-0.9401702880859375,-0.420745849609375,-0.4084820216275814,-0.26290905333836273,-0.21981059141238116,0
54,2.691,-0.0247802734375,-0.7727508544921875,-0.55218505859375,-0.5813916775620879,-0.26764860325973777,-0.026082095676286245,0
55,2.741,-0.2298736572265625,-0.730194091796875,-0.770843505859375,-0.7259896905735089,-0.24833734727917914,-0.21159567997234943,0
56,2.791,-0.1419677734375,-0.7083587646484375,-0.71209716796875,-0.7089653130710692,-0.2496928053891054,-0.1399523217097186,0
57,2.841,-0.0317230224609375,-0.6792144775390625,-0.671356201171875,-0.7029805908693042,-0.24479151283899664,-0.033199032076456615,0
58,2.89,-0.04705810546875,-0.7009735107421875,-0.533172607421875,-0.6053946797203966,-0.2283122924599477,-0.05335635234533693,0
59,2.94,-0.280426025390625,-0.6758270263671875,-0.6036224365234375,-0.6661419163459655,-0.21147978021307584,-0.2956375318953067,0
60,2.99,-0.2452239990234375,-0.7227325439453125,-0.6452789306640625,-0.6660054413612876,-0.22005825132469778,-0.24536364599924546,0
61,3.04,-0.114227294921875,-0.743011474609375,-0.55218505859375,-0.5964866513785108,-0.2589868167719591,-0.12246294766638847,0
62,3.09,-0.0875091552734375,-0.743560791015625,-0.6014404296875,-0.6288888234609017,-0.2941769253112493,-0.09112219933517858,0
63,3.14,-0.186248779296875,-0.8240814208984375,-0.660003662109375,-0.6251214746170842,-0.3153619943925476,-0.17372293290614357,0
64,3.189,-0.1858062744140625,-0.8524627685546875,-0.6680450439453125,-0.616823635917136,-0.35309069134346105,-0.1690894998405885,0
65,3.239,-0.0266571044921875,-0.74920654296875,-0.713134765625,-0.6894547558293669,-0.37860910556127847,-0.025763387000453438,0
66,3.289,-0.0550537109375,-0.7288360595703125,-0.8924560546875,-0.6615918406989286,-0.37258702989754205,-0.028807736349430384,0
67,3.339,-0.1446075439453125,-0.872283935546875,-0.39849853515625,-0.41553563783784714,-0.3626792606612756,-0.14910437326669884,0
68,3.389,-0.1792755126953125,-0.9132537841796875,-0.2952728271484375,-0.30763953971211744,-0.3518513712388941,-0.1836085555520162,0
69,3.439,-0.050506591796875,-0.782684326171875,-0.3423309326171875,-0.4007270053531444,-0.3418362374625306,-0.059019133702102544,0
70,3.488,0.02252197265625,-0.938385009765625,-0.2969512939453125,-0.3017033617492587,-0.3631590390725487,0.022876400166125688,0
71,3.538,-0.1512603759765625,-0.909271240234375,-0.3897247314453125,-0.3939509446658102,-0.3483028763273973,-0.15114409598039502,0
72,3.588,-0.0504913330078125,-0.9252777099609375,-0.4862518310546875,-0.4651946263870879,-0.3438607278162769,-0.04824854099960775,0
73,3.638,-0.147430419921875,-0.9222412109375,-0.5736846923828125,-0.5281994789437482,-0.3521089844180248,-0.1345076971922717,0
74,3.688,-0.072174072265625,-0.8654327392578125,-0.562347412109375,-0.5448631061065681,-0.33759431398344864,-0.06975969975451304,0
75,3.738,-0.1270294189453125,-0.8873748779296875,-0.69775390625,-0.5221880456524524,-0.30879764542373284,-0.09729824802835874,0
76,3.787,0.1224212646484375,-0.8141021728515625,-0.36859130859375,-0.41245301486790836,-0.28973609496276426,0.13572161697648905,0
77,3.837,0.1423187255859375,-0.7781219482421875,-0.40142822265625,-0.4584777748053272,-0.2807105479366696,0.1604389175617849,0
78,3.887,-0.1165008544921875,-1.0054473876953125,-0.2084503173828125,-0.20300409941705144,-0.2680651172357875,-0.11273375404240846,0
79,3.937,-0.1547698974609375,-0.9379119873046875,-0.454010009765625,-0.4357021594959359,-0.26685175629298863,-0.14691712129456574,0
80,3.987,0.1204071044921875,-0.83294677734375,-0.3144989013671875,-0.35323358871831245,-0.25164624311398265,0.1340168628947667,0
81,4.037,-0.2436370849609375,-0.8714599609375,-0.65472412109375,-0.3923748617353199,-0.18177605667548874,0.1278443199115415,0
82,4.086,-0.0353240966796875,-0.8448333740234375,-0.668121337890625,-0.6203004514465041,-0.1450678498351246,-0.03277814634898811,0
83,4.136,-0.1216278076171875,-0.911102294921875,-0.6110687255859375,-0.5841674562272667,-0.11638853480831196,-0.05028620189534222,0
84,4.186,0.0641937255859375,-0.98016357421875,-0.1150665283203125,-0.1165945472886092,-0.06924563553593996,0.06490901199762934,0
85,4.236,0.1522674560546875,-0.8142547607421875,-0.4786376953125,-0.5067560546769535,-0.0746395636915037,0.15915770826056344,0
86,4.286,0.1566314697265625,-0.8347930908203125,-0.4510650634765625,-0.47537475227668513,-0.11377559432597859,0.16286886252871885,0
87,4.336,0.154022216796875,-1.0128173828125,-0.416778564453125,-0.4053461206661937,-0.18733913971540778,0.13872573840754937,0
88,4.385,-0.016571044921875,-1.0899658203125,-0.49237060546875,-0.4361417809568298,-0.17067875253698794,0.12590098147376613,0
89,4.435,0.23150634765625,-0.8410797119140625,-0.5572357177734375,-0.5523071778200942,-0.210073335034945,0.22364663819116962,0
90,4.485,0.32635498046875,-0.751708984375,-0.208465576171875,-0.2672362629494419,-0.2706532641225205,0.385946890328512,0
91,4.535,0.3621368408203125,-0.7210845947265625,0.076385498046875,0.10534199970984907,-0.30109844627630616,0.44679631406904036,0
92,4.585,0.041839599609375,-0.9442596435546875,-0.47369384765625,-0.44839760630528563,-0.3388847408832353,0.03957425206823053,0
93,4.635,-0.10748291015625,-1.0655364990234375,-0.789459228515625,-0.43275399281130705,-0.37152387131692755,0.02914612912162793,0
94,4.684,0.1883392333984375,-0.892242431640625,-0.6296539306640625,-0.3000058937529741,-0.44884460558813166,-0.014570196698440119,0
95,4.734,0.3891754150390625,-0.788818359375,0.0096282958984375,0.0122050642261704,-0.5096387450255822,0.4424206127234423,0
96,4.784,0.2599639892578125,-1.0083770751953125,0.51666259765625,0.03982898802986999,-0.5091292879383748,0.4597922416559058,0
97,4.834,-0.1174774169921875,-1.170196533203125,-0.011566162109375,-0.01015241389794381,-0.48157299638613527,0.4821751940882691,0
98,4.884,0.003997802734375,-1.0221405029296875,-0.14886474609375,-0.14411975221458143,-0.46611906071146764,0.003870345661075815,0
99,4.934,0.2451324462890625,-0.788604736328125,-0.15289306640625,-0.190333748983199,-0.46979059755475955,0.29187323117079295,0
100,4.983,0.3349609375,-0.6654815673828125,-0.0812835693359375,-0.12124144108641324,-0.5101935939746702,0.4469438281506254,0
101,5.033,0.188507080078125,-0.8498382568359375,-0.047271728515625,-0.05553852905452691,-0.589375307537858,0.21623321901430653,0
102,5.083,-0.334442138671875,-1.44830322265625,-0.25494384765625,-0.030252634257466667,-0.6102663650433101,0.2500423048959601,0
103,5.133,-0.088531494140625,-1.2308349609375,-0.43408203125,-0.032681617922852194,-0.5750402117921024,0.22945143170339743,0
104,5.183,0.2872161865234375,-0.733673095703125,0.117279052734375,0.1578479254120288,-0.584948365604691,0.360566171799147,0
105,5.233,0.4154205322265625,-0.5467681884765625,0.7812652587890625,0.819289800754435,-0.6095116435406228,0.39938649812291277,0
106,5.282,0.362060546875,-0.448577880859375,0.7362213134765625,0.8539701654013216,-0.6405933645734248,0.38720688555294136,0
107,5.332,0.0001373291015625,-0.7091064453125,0.4307098388671875,0.5191374612725327,-0.6909819574101418,0.00016552368609656017,0
108,5.382,-0.4417877197265625,-1.326995849609375,0.4129486083984375,0.5738907413303569,-0.7341847267664816,0.06735451595587731,0
109,5.432,-1.0236053466796875,-1.9849700927734375,0.5540924072265625,0.6375924720492588,-0.7423017698661536,0.04291183146294856,0
110,5.482,-0.10186767578125,-1.37274169921875,0.61285400390625,0.6256543005372882,-0.7265859902478518,-0.024433261228706368,0
111,5.532,0.6240081787109375,-0.7156829833984375,0.536865234375,0.6000736763514948,-0.7246971411359746,0.5720724012868665,0
112,5.581,1.187225341796875,-0.310028076171875,0.7047576904296875,0.6715031642938161,-0.7286398477735648,0.5238166214090921,0
113,5.631,1.565093994140625,-0.0793914794921875,0.3161163330078125,0.7861005964360291,-0.7384842000853338,0.49410069310756266,0
114,5.685,3.2330780029296875,0.8403167724609375,1.4340057373046875,0.8316477115267685,-0.685532013723741,0.4871157727265677,0
115,5.735,1.281341552734375,2.1435699462890625,-0.627960205078125,0.9014703787780037,-0.686325505692666,0.7214427038192381,0
116,5.785,-6.52557373046875,0.7667694091796875,1.23779296875,0.855217395305272,-0.5428059442256796,0.9132008248813106,0
117,5.834,-2.4813995361328125,-2.0448455810546875,0.6082763671875,0.9468771294709187,-0.52540804921504,0.9176341116545668,0
118,5.884,-2.1752471923828125,0.047821044921875,0.9247589111328125,0.9288368004161468,-0.6646507361580372,0.8809895910036207,1
119,5.934,-1.126739501953125,0.6346893310546875,0.323760986328125,0.9428180023020248,-0.7483972371880698,0.8049236674223922,0
120,5.984,-0.9079742431640625,0.004425048828125,0.9940032958984375,0.9322875397167426,-0.7718081603353748,0.7256850391957862,0
121,6.034,-0.109161376953125,-0.0725250244140625,0.816375732421875,0.9960771273324864,-0.7885366130814673,-0.1320242017359433,0
122,6.084,0.60009765625,-0.1701202392578125,0.7893829345703125,0.9775564623655959,-0.7893124217425083,0.5964750766788544,0
123,6.133,1.156524658203125,-0.1252899169921875,0.797637939453125,0.9583881562306983,-0.7904837091794318,0.5808829234293479,0
124,6.183,1.0365142822265625,-0.1724853515625,0.95025634765625,0.9360114069726738,-0.793669354842073,0.6137237294068305,0
125,6.233,0.4797821044921875,-0.646759033203125,0.8992919921875,0.8912737235281541,-0.7891068874101543,0.6735744051606831,0
126,6.283,-0.5165252685546875,-1.614349365234375,0.6823883056640625,0.8540429372580146,-0.8094806684729621,0.7016100282401923,0
127,6.333,-0.273284912109375,-1.3210601806640625,0.6905670166015625,0.7839153126037762,-0.8036543713440848,0.670202260563385,0
128,6.383,0.380462646484375,-0.5866851806640625,0.3415679931640625,0.5031399462095554,-0.791951204711098,0.4888908540094953,0
129,6.432,0.643524169921875,-0.298187255859375,0.3532257080078125,0.7641282587501425,-0.7929678946857217,0.8121787992486634,0
130,6.482,0.6493072509765625,-0.253662109375,0.563446044921875,0.9118540333177377,-0.8110454575515824,0.7244027059140036,0
131,6.532,0.332916259765625,-0.5809173583984375,0.3065338134765625,0.46668543433422816,-0.8236960687709158,0.4520960832758362,0
132,6.582,-0.182373046875,-1.1086883544921875,0.15185546875,0.500227531171257,-0.8285775974753183,0.5086888961433119,0
133,6.632,-0.5743408203125,-1.5743408203125,0.463836669921875,0.5697767334706759,-0.8334892027689105,0.5205761081076868,0
134,6.682,0.040008544921875,-1.06549072265625,0.975067138671875,0.5364841317373145,-0.8133899571829408,0.4843553131015718,0
135,6.731,0.4930877685546875,-0.4944305419921875,0.3717803955078125,0.6009901316021,-0.8125775108684806,0.6233045310865,0
136,6.781,0.518646240234375,-0.7241973876953125,0.85699462890625,0.6259914117702247,-0.8244342368484804,0.6230441899048909,0
137,6.831,-0.885589599609375,-2.2201995849609375,0.2626495361328125,0.6225719449572128,-0.8062083009735768,0.6155121217313875,0
138,6.881,0.238555908203125,-1.39166259765625,0.6472625732421875,0.6815344478797218,-0.7869357599474519,0.497700720660284,0
139,6.931,1.1609344482421875,-0.131317138671875,0.47882080078125,0.736673918783296,-0.7675316903315963,0.36980755568715556,0
140,6.981,3.157318115234375,1.211212158203125,0.5509185791015625,0.8224799310352705,-0.7086686658826984,0.30707592513672943,0
141,7.03,4.2407684326171875,1.8562164306640625,1.0562286376953125,0.8653162002018907,-0.6897739853341083,0.46933161405140816,0
142,7.08,-3.9928436279296875,2.687713623046875,0.216705322265625,0.9181571778752643,-0.5621568280248442,0.7804567565568873,0
143,7.13,-7.9097137451171875,-3.6113128662109375,-6.074127197265625,0.9402119959194871,-0.3992103094149198,0.923492934552626,0
144,7.18,-2.8632354736328125,-1.0799560546875,2.8463287353515625,0.9241074094481893,-0.6670222167096361,0.8666198717780094,0
145,7.23,-0.670928955078125,1.3582000732421875,-0.9235992431640625,0.9093239880420223,-0.7358877132294552,0.7479519013088443,0
146,7.28,-0.6007080078125,-0.0496826171875,1.260101318359375,0.9198839539651339,-0.7752939780121076,0.6574069992734156,1
147,7.329,0.2664947509765625,-0.2305450439453125,0.6603240966796875,0.9441114714458542,-0.7851410596980923,0.3560555290819166,0
148,7.379,0.8836212158203125,-0.3482513427734375,0.939056396484375,0.9326549279943419,-0.7820734993837634,0.266190300123234,0
149,7.429,0.967437744140625,-0.4756317138671875,0.96746826171875,0.8852623674408431,-0.7943403450545637,0.21257696382823685,0
150,7.479,1.032012939453125,-0.185272216796875,0.742645263671875,0.8123216561650966,-0.7660456156739142,0.19248528007144056,0
151,7.529,0.5366058349609375,-0.6239013671875,0.8379974365234375,0.7571812995963082,-0.7766417277989041,0.2416360030197828,0
152,7.579,-0.347564697265625,-1.6399383544921875,0.4787139892578125,0.772314440557882,-0.8122078870998869,0.2642423860997945,0
153,7.628,-0.078582763671875,-1.343719482421875,0.7912445068359375,0.7346533204398131,-0.8150957899871546,0.21075654191542373,0
154,7.678,0.567901611328125,-0.5359649658203125,0.2941131591796875,0.4810801829793634,-0.8158964606058977,0.6805863747896657,0
155,7.728,0.74945068359375,-0.23089599609375,0.560546875,0.9246301348759814,-0.8231354605622349,0.7774777546164584,0
156,7.778,0.7845458984375,-0.1304473876953125,0.625823974609375,0.9789593654042889,-0.8267621660459207,0.7752276791581009,0
157,7.828,0.364898681640625,-0.5824127197265625,0.2068634033203125,0.3346984217418976,-0.8451734054700963,0.5084008250151513,0
158,7.878,-0.424835205078125,-1.34197998046875,0.3856658935546875,0.41452018234328003,-0.8675257279171282,0.5519714996581883,0
159,7.927,-0.0246734619140625,-1.14129638671875,0.823699951171875,0.405227972378738,-0.8615309523555678,0.5375637824084398,0
160,7.977,0.526275634765625,-0.5285797119140625,0.464508056640625,0.6601134954244249,-0.8343922753411256,0.5989188317401442,0
161,8.027,0.66741943359375,-0.34954833984375,0.323638916015625,0.6793888691220212,-0.8299417600382469,0.8139413364070578,0
162,8.077,0.230560302734375,-0.8141021728515625,0.32489013671875,0.3706522174609649,-0.8397395967877652,0.2543827289467127,0
163,8.127,-0.36419677734375,-1.5272216796875,0.5011749267578125,0.4072971793076298,-0.8389064711353631,0.30357419595311613,0
164,8.177,-0.9248504638671875,-2.0430450439453125,0.6766815185546875,0.4045769345004994,-0.7958937513096743,0.2860174430268429,0
165,8.226,0.1642608642578125,-1.179962158203125,0.7690582275390625,0.3427006938116775,-0.7264925334397159,0.15639443155337943,0
166,8.276,1.4198455810546875,-0.090179443359375,0.604034423828125,0.38739805464592525,-0.6864739626082094,0.036076315531943695,0
167,8.326,1.8435821533203125,-0.176361083984375,0.222503662109375,0.5115051036159148,-0.6665706275419195,0.032946225143464916,0
168,8.376,2.1547698974609375,-0.2343597412109375,0.9156341552734375,0.7160665279242765,-0.6342223919070906,0.04999203112451433,0
169,8.426,4.6865234375,1.698944091796875,2.300445556640625,0.703307167158729,-0.6379819887188153,0.16273950571542398,0
170,8.476,-6.9937744140625,4.7542724609375,0.26837158203125,0.7711668993202622,-0.6081030852542918,0.7024574828934642,0
171,8.525,-4.027191162109375,-2.46527099609375,-3.787445068359375,0.9486929785264355,-0.46171009567317467,0.6068463526805399,0
172,8.575,-2.4537811279296875,1.078155517578125,1.0266265869140625,0.8315160571921778,-0.5421564371931389,0.3296254549314547,0
173,8.625,-1.2730560302734375,0.5092315673828125,0.1215972900390625,0.8997110726343243,-0.6531481884877224,0.2703567645830573,0
174,8.675,-0.5438385009765625,-0.0212554931640625,1.0256500244140625,0.8721699603562222,-0.6598869463837843,0.1489782117479874,1
175,8.725,0.5252532958984375,-0.1405029296875,0.88226318359375,0.9875554787952836,-0.6719314811168435,0.5068302366907,0
176,8.775,0.7918853759765625,-0.42755126953125,0.9511260986328125,0.9582773197970837,-0.6858134281243149,0.4489429698663307,0
177,8.824,0.7441558837890625,-0.557464599609375,0.5106658935546875,0.6754778200385083,-0.6978440984694999,0.7014988752788672,0
178,8.874,0.82867431640625,-1.0529937744140625,0.6058197021484375,0.5669308305739721,-0.6624612122911167,0.7199303232034676,0
179,8.924,0.202911376953125,-1.6903228759765625,0.5474090576171875,0.5189067424332392,-0.6519622276369337,0.7205092921405756,0
180,8.974,-0.0112457275390625,-1.5557403564453125,0.474945068359375,0.5202106477110523,-0.6825586989863888,0.6699838858885648,0
181,9.024,0.251220703125,-0.859619140625,0.5307769775390625,0.525375187571368,-0.6485282745291613,0.24131517797457638,0
182,9.074,0.638458251953125,-0.2759246826171875,0.29901123046875,0.7349083962465799,-0.5903015498348074,0.8433160531923014,0
183,9.123,0.7193756103515625,-0.10870361328125,0.24029541015625,0.9111099920153996,-0.5942294687333528,0.9388897585069728,0
184,9.173,0.7449493408203125,-0.2360687255859375,0.4136199951171875,0.8685013140878803,-0.6594197589642862,0.8425392978523728,0
185,9.223,0.2444610595703125,-0.9582672119140625,-0.1145477294921875,-0.1186913347726937,-0.724276483787744,0.24554898753436796,0
186,9.273,-0.9011383056640625,-1.8973541259765625,-1.048492431640625,-0.131471323960415,-0.7596500131632832,0.27982472449535584,0
187,9.323,0.2166748046875,-1.113128662109375,0.0180206298828125,-0.14604916294991396,-0.6851342042648549,0.2181037788136555,0
188,9.373,0.7050933837890625,-0.5964813232421875,0.5208282470703125,0.6577225628492975,-0.6524188068110517,0.6650023289813956,0
189,9.423,0.556427001953125,-0.5123138427734375,0.294891357421875,0.4988663336227499,-0.6324911426609291,0.6854143112558968,0
190,9.472,0.4873199462890625,-0.6806640625,-0.00238037109375,-0.0034971091749194656,-0.6544143121570377,0.5821303621950077,0
191,9.522,0.210296630859375,-0.933074951171875,-0.5899505615234375,-0.06873980841998426,-0.6953388767876449,0.5983677121032318,0
192,9.572,0.3074951171875,-0.9936370849609375,-0.639007568359375,-0.11870347027383656,-0.6948577893186632,0.6140334741870673,0
193,9.622,0.2700347900390625,-1.0185699462890625,-0.484130859375,-0.15403281472234578,-0.6729393836267119,0.6391204179011121,0
194,9.672,0.1643218994140625,-1.000152587890625,-0.453399658203125,-0.1474389927012192,-0.6715765174561559,0.6513717041262934,0
195,9.722,0.1903228759765625,-0.9577789306640625,-0.314117431640625,-0.311632680375627,-0.6618858019257728,0.1855389202575383,0
196,9.771,0.1912994384765625,-0.8756866455078125,-0.3833770751953125,-0.40105077054369015,-0.6463269343219793,0.1962277182682238,0
197,9.821,0.1948394775390625,-0.8729248046875,-0.3550567626953125,-0.37676963652407913,-0.6388370527364864,0.20247224441944228,0
198,9.871,0.183380126953125,-0.8455810546875,-0.3916778564453125,-0.42030484390478673,-0.6245198195484621,0.1930801615387014,0
199,9.921,0.237457275390625,-0.8251953125,-0.4092559814453125,-0.4443089285500282,-0.6158640135130035,0.24963385984551686,0
200,9.971,0.146392822265625,-0.8810272216796875,-0.4287567138671875,-0.4375885794539933,-0.6030672909612872,0.14776813586584445,0
201,10.021,0.23822021484375,-0.865142822265625,-0.4816131591796875,-0.48639771312860897,-0.5919819199428826,0.23391236306631444,0
202,10.07,0.2047119140625,-0.8874664306640625,-0.5274200439453125,-0.5108873821662034,-0.5932349883230045,0.1945077172301299,0
203,10.12,0.23455810546875,-0.9003753662109375,-0.484832763671875,-0.4741113904728192,-0.5961601252849973,0.22356555496461966,0
204,10.17,0.2122955322265625,-0.9044036865234375,-0.4794158935546875,-0.4683561304726636,-0.6002366329779573,0.2030764574116739,0
205,10.22,0.1927642822265625,-0.890045166015625,-0.4475860595703125,-0.4492709121274887,-0.6079319200082091,0.18996656392955613,0
206,10.27,0.231689453125,-0.8533172607421875,-0.381439208984375,-0.40809148449389543,-0.6148780393341382,0.2405968818749276,0
207,10.32,0.2403106689453125,-0.8482818603515625,-0.2887725830078125,-0.3222595770063753,-0.6344308978181699,0.2590251111606897,0
208,10.369,0.1205902099609375,-0.8726959228515625,-0.45257568359375,-0.4603706250411532,-0.6509655774501844,0.12175458154472091,0
209,10.419,0.1437530517578125,-0.868194580078125,-0.61834716796875,-0.5801245169187444,-0.65384514398837,0.1336569940452661,0
210,10.469,0.0831146240234375,-0.880096435546875,-0.758514404296875,-0.5916565418993709,-0.6428908668834533,0.13341434909078892,0
211,10.519,0.2400360107421875,-0.830352783203125,-0.6054840087890625,-0.589183870864116,-0.6184268063756553,0.22745190434459353,0
212,10.569,0.256561279296875,-0.818817138671875,-0.3849639892578125,-0.42546970706714393,-0.6032239447462319,0.2728013389858326,0
213,10.619,0.2072296142578125,-0.823577880859375,-0.2422027587890625,-0.28213841640134385,-0.6047700500214205,0.23465835911856228,0
214,10.668,0.080657958984375,-0.8599700927734375,-0.4681854248046875,-0.4781521053910788,-0.6046226023868665,0.0820969276934872,0
215,10.718,0.0933380126953125,-0.866485595703125,-0.5955963134765625,-0.5664561440170832,-0.5958688714244745,0.08842363226124551,0
216,10.768,0.173614501953125,-0.8798980712890625,-0.476287841796875,-0.4760330599436437,-0.590081724602189,0.17096683353825629,0
217,10.818,0.1898956298828125,-0.856170654296875,-0.49371337890625,-0.4995469072164374,-0.5907377788126098,0.1886879817985401,0
218,10.868,0.098052978515625,-0.9107818603515625,-0.521514892578125,-0.4969059441646601,-0.6035144553253124,0.09302102815234087,0
219,10.918,0.06378173828125,-0.928375244140625,-0.644439697265625,-0.49597133524706005,-0.6034540406731219,0.08675611668086773,0
220,10.967,0.1463775634765625,-0.873992919921875,-0.540435791015625,-0.5259271847321856,-0.5895412539909041,0.14102428843226128,0
221,11.017,0.2506561279296875,-0.814239501953125,-0.3043975830078125,-0.350172972047038,-0.5838077385818734,0.2770615888420963,0
222,11.067,0.2592010498046875,-0.75189208984375,-0.2546844482421875,-0.3208198268024725,-0.5851256498895182,0.31038345709180204,0
223,11.117,0.2436065673828125,-0.78802490234375,-0.34735107421875,-0.40334180765742256,-0.5982397481025201,0.27219372480863724,0
224,11.167,0.143768310546875,-0.847686767578125,-0.56878662109375,-0.5571813021561141,-0.5850720887574459,0.1394586596325656,0
225,11.217,0.140472412109375,-0.92376708984375,-0.5280914306640625,-0.49629799530482915,-0.5717338553030805,0.13087978911179726,0
226,11.266,0.23651123046875,-0.8924102783203125,-0.6387176513671875,-0.5021079641052968,-0.5876697994472728,0.12451045393973119,0
227,11.316,0.278076171875,-0.868804931640625,-0.559051513671875,-0.5411233108217098,-0.5775568848506268,0.259908455272894,0
228,11.366,0.142303466796875,-0.85028076171875,-0.5492401123046875,-0.5425954587818004,-0.5708593933202617,0.13921297208924957,0
229,11.416,0.2002716064453125,-0.8213348388671875,-0.365753173828125,-0.4068028651133332,-0.5685382596779314,0.2174201803109798,0
230,11.466,0.1618804931640625,-0.820831298828125,-0.289459228515625,-0.33256884187340496,-0.5728570552333897,0.18285384228092555,0
231,11.516,0.1153717041015625,-0.8578948974609375,-0.3853759765625,-0.40976620479700815,-0.5850536761134314,0.12176075922132773,0
232,11.565,0.0701446533203125,-0.9354400634765625,-0.532745361328125,-0.49488366215468926,-0.5971901224353112,0.06502165329120638,0
233,11.615,0.043548583984375,-0.9966888427734375,-0.611358642578125,-0.48242586618794675,-0.6047929659007091,0.06242937962379142,0
234,11.665,0.167266845703125,-0.9426727294921875,-0.4528045654296875,-0.432981029315173,-0.6036731299854116,0.15793657890255394,0
235,11.715,0.1297607421875,-0.9292755126953125,-0.3402252197265625,-0.3438010952953047,-0.6151249035830472,0.1300116448656139,0
236,11.765,0.1215972900390625,-0.900177001953125,-0.32904052734375,-0.3433123366513147,-0.6431819812934204,0.12586253203919884,0
237,11.815,0.1044158935546875,-0.889190673828125,-0.354888916015625,-0.37068161028260926,-0.6628565378938475,0.10841954295993664,0
238,11.864,0.1971893310546875,-0.7550811767578125,-0.26885986328125,-0.3354377852450149,-0.6945086455110053,0.2388959852905482,0
239,11.914,0.327545166015625,-0.6534881591796875,0.0189971923828125,0.029058170409966704,-0.7500215609674629,0.44793886037134717,0
240,11.964,0.1440582275390625,-0.7916412353515625,-0.2512664794921875,-0.3025264137856706,-0.8207794889785665,0.1708954575398436,0
241,12.014,-0.1198883056640625,-0.996551513671875,0.1105804443359375,0.11028620975611599,-0.8524296240044561,-0.11872363131987507,0
242,12.064,-0.0921783447265625,-1.0350799560546875,0.7553863525390625,0.2526171563626002,-0.8467108215722746,-0.10522657250188541,0
243,12.114,-0.0570526123046875,-0.938751220703125,0.72967529296875,0.29743583195510676,-0.8186815886852241,-0.09577452092035317,0
244,12.163,-0.0106964111328125,-0.7882232666015625,0.5404815673828125,0.565518116592048,-0.8029344674757497,-0.011191196579678493,0
245,12.213,-0.0061492919921875,-0.821807861328125,0.5003814697265625,0.5200611482557388,-0.7911221090858797,-0.0063910091318643385,0
246,12.263,-0.05877685546875,-0.6524505615234375,0.6597900390625,0.7110505701640699,-0.7866570488990006,-0.06321666021535279,0
247,12.313,-0.1630401611328125,-0.46685791015625,0.9493865966796875,0.8973700028822703,-0.7817798545099417,-0.1523092548848363,0
248,12.363,-0.1659698486328125,-0.2232666015625,1.3311614990234375,0.9468851609550217,-0.7789205380602278,-0.18899736212620624,0
249,12.413,0.0064544677734375,-0.1066741943359375,1.592620849609375,0.9359629746931873,-0.780297495703042,-0.20971434980801482,0
250,12.462,-0.0803375244140625,-0.1729583740234375,1.215057373046875,0.8481938751018931,-0.7780038929490931,-0.20047117493509645,0
251,12.512,-0.2306671142578125,-0.2447509765625,0.5006256103515625,0.8983838807199722,-0.7768727111729835,-0.38246555131666116,0
252,12.562,-0.0517425537109375,-0.3932952880859375,0.0957489013671875,0.23654395536617,-0.7661535788880054,-0.12679624922146301,0
253,12.612,0.0795135498046875,-0.7154083251953125,-0.09124755859375,-0.12652115133539568,-0.7277253245231182,0.10958710281212825,0
254,12.662,-0.1170501708984375,-1.1624755859375,-0.260223388671875,-0.22095329526555335,-0.6886175758911995,0.1481810164437221,0
255,12.712,-0.386962890625,-1.38336181640625,0.0704345703125,-0.15240052136730214,-0.6849138136831012,0.15890612589312722,0
256,12.761,-0.4610748291015625,-1.2690277099609375,0.9434661865234375,-0.1243036604994109,-0.6590642643376465,0.12910194281721432,0
257,12.811,-0.34588623046875,-0.7762298583984375,0.72955322265625,-0.2194499626691967,-0.6272120587907039,0.08815052945380861,0
258,12.861,-0.2646026611328125,-0.5638427734375,0.517242431640625,0.6759991060914281,-0.6188634630443507,-0.3268261609121169,0
259,12.911,-0.3517913818359375,-0.5814056396484375,0.2378387451171875,0.37862054981797416,-0.6453445678720354,-0.488619424265469,0
260,12.961,-0.279998779296875,-0.57745361328125,-0.1142730712890625,-0.19412674855656908,-0.6983040921702678,-0.42954383967734766,0
261,13.011,-0.1787109375,-0.6630859375,-0.6579132080078125,-0.70433251347271,-0.7777093674678537,-0.18791176253058023,0
262,13.06,-0.066558837890625,-0.7344512939453125,-0.7045745849609375,-0.6922768132562136,-0.8485410298902009,-0.06525771033905135,0
263,13.11,-0.0948028564453125,-0.8063507080078125,-0.8045501708984375,-0.7487532178531274,-0.8901845551059291,-0.06215167708301858,0
264,13.16,0.00628662109375,-0.86529541015625,-0.890869140625,-0.790192130222249,-0.9228449256435819,-0.06507536600221549,0
265,13.21,0.087371826171875,-0.9127960205078125,-0.918121337890625,-0.8092175662044823,-0.9393791306999887,-0.0638658032085986,0
266,13.26,0.1088104248046875,-0.9619140625,-0.720306396484375,-0.8186825690847478,-0.9522685812756738,-0.04597708276988814,0
267,13.31,0.0368499755859375,-0.740509033203125,-0.4857940673828125,-0.5485262220230617,-0.9583719079200501,0.041572560677401,0
268,13.359,-0.1814727783203125,-0.6580963134765625,-0.22802734375,-0.32739874363814947,-0.9602316661449194,-0.2521380522381487,0
269,13.409,-0.442596435546875,-0.802703857421875,-0.7264404296875,-0.38596402403206437,-0.9747358890044804,-0.22581802635625578,0
270,13.459,-0.4915313720703125,-1.0116119384765625,-1.355865478515625,-0.3968153047507631,-0.983015140278868,-0.22308863189552935,0
271,13.509,-0.4691009521484375,-0.976043701171875,-1.232513427734375,-0.3673264059232073,-0.9767731173668366,-0.21831474750824773,0
272,13.559,-0.220458984375,-0.780120849609375,-0.666290283203125,-0.6494503778260381,-0.9637728695591259,-0.2100911824516965,0
273,13.609,-0.193206787109375,-0.69415283203125,-0.828033447265625,-0.7663404540919002,-0.9691215480084686,-0.17601996978636483,0
274,13.659,-0.0865478515625,-0.6163482666015625,-0.2412872314453125,-0.36454015785904675,-0.9862684600992746,-0.12965402927688333,0
275,13.708,-0.2499847412109375,-0.7890472412109375,0.2729034423828125,0.32686637392937906,-0.971332614557047,-0.2868344129281493,0
276,13.758,-0.239410400390625,-0.80267333984375,-0.6177520751953125,-0.6099036746926699,-0.9608197809197517,-0.23003016284134342,0
277,13.808,-0.7301788330078125,-0.958038330078125,-1.3103485107421875,-0.4458120607544231,-0.9696097479623745,-0.21304682379749773,0
278,13.858,-0.4743804931640625,-0.9898834228515625,-0.576995849609375,-0.1639917240882628,-0.9881323520928446,-0.22404569154963327,0
279,13.908,-0.1710662841796875,-0.701507568359375,0.1111602783203125,0.15650642773937928,-0.9982776540947766,-0.2341544055747199,0
280,13.958,-0.2561492919921875,-0.718505859375,1.15252685546875,0.39204861608227515,-0.9998433018189523,-0.26888358992839667,0
281,14.007,-0.424285888671875,-0.69183349609375,0.8719329833984375,0.49447928097628613,-0.9999655951830255,-0.33023716370243406,0
282,14.057,-0.351470947265625,-0.685455322265625,1.012603759765625,0.5354145865241926,-0.9999929005179654,-0.4143345592051273,0
283,14.107,-0.2308197021484375,-0.5499114990234375,0.78387451171875,0.8186430489072982,-0.9998821996313005,-0.23434503179524685,0
284,14.157,0.1065521240234375,-0.2702789306640625,0.698150634765625,0.9325559239070237,-0.9989200785970374,0.14090716007579657,0
285,14.207,0.4909210205078125,-0.068206787109375,0.3712005615234375,0.9835344093526396,-0.9973472714709084,0.7927930276830518,0
286,14.257,0.1823577880859375,-0.3648834228515625,0.3167266845703125,0.6555146604524299,-0.9972095159649073,0.35310560456024914,0
287,14.306,-0.3915557861328125,-0.938140869140625,0.6986236572265625,0.6759064593126112,-0.9969785124988851,0.36665416862910744,0
288,14.356,-0.2719573974609375,-0.9827117919921875,0.895111083984375,0.6638294459690443,-0.9978996706458829,0.35010595472859946,0
289,14.406,0.033294677734375,-0.7117156982421875,0.6135711669921875,0.6529537556032495,-0.9985746208507873,0.03540950531732861,0
290,14.456,0.240875244140625,-0.51007080078125,0.6136627197265625,0.769030999713074,-0.9987113963610313,0.2889815155146011,0
291,14.506,0.2158355712890625,-0.474029541015625,0.727203369140625,0.8377336683970961,-0.9991946027045282,0.24129435232825183,0
292,14.556,-0.053497314453125,-0.7042694091796875,0.7286224365234375,0.7190207307523367,-0.9993307258030798,-0.05271891926878851,0
293,14.605,-0.121795654296875,-0.8072662353515625,0.95330810546875,0.7327535638265039,-0.9996660651359182,-0.06095300130075142,0
294,14.655,0.1186676025390625,-0.649566650390625,0.8078765869140625,0.779329863298208,-0.9998533685177367,0.11373165665842087,0
295,14.705,0.209320068359375,-0.4974365234375,0.751708984375,0.8339413710240278,-0.9999574086094083,0.22619953756341263,0
296,14.755,0.1567535400390625,-0.5099029541015625,0.7055511474609375,0.8104947668702216,-0.9999979858331134,0.17721882095434274,0
297,14.805,-0.1524505615234375,-0.878814697265625,0.8672943115234375,0.8144913145280612,-0.9998615613259761,0.1982067151252794,0
298,14.855,-0.30859375,-0.9920196533203125,0.8661346435546875,0.7926971449857363,-0.9991210898161013,0.15539465765402188,0
299,14.904,0.2004547119140625,-0.57037353515625,0.6140594482421875,0.7326890817423009,-0.9986960549113546,0.2326191705676874,0
300,14.954,0.30828857421875,-0.4046630859375,0.65576171875,0.8510104055398943,-0.9986620220634206,0.3714542624852008,0
301,15.004,0.250701904296875,-0.366485595703125,0.708984375,0.8883354473828389,-0.9987624432739184,0.2996841976962138,0
302,15.054,0.0454254150390625,-0.652435302734375,0.6923065185546875,0.7277524824296331,-0.9984574228100546,0.0476968401367778,0
303,15.104,-0.2972869873046875,-1.0041046142578125,0.7891845703125,0.7260104638151617,-0.9983426087915401,0.06100732901143864,0
304,15.154,-0.172515869140625,-1.1015472412109375,0.847900390625,0.709884574689251,-0.9976267468365441,0.032398666593649914,0
305,15.203,0.17718505859375,-1.047027587890625,0.7815399169921875,0.715977353939578,-0.995876792698896,-0.017174969076311657,0
306,15.253,0.6498870849609375,-0.8782196044921875,1.2077789306640625,0.7552326927939319,-0.9955498192829826,-0.0885748042762753,0
307,15.303,1.22418212890625,-0.5225067138671875,0.984771728515625,0.8117932966922348,-0.9971497974566944,-0.16552720044354718,0
308,15.353,2.2987823486328125,-0.06494140625,0.6931915283203125,0.8762984594957334,-0.9960338814269517,-0.21936952722539815,0
309,15.403,3.4588623046875,1.34375,0.981475830078125,0.8969475398858027,-0.9889659735764156,-0.11826299684234111,0
310,15.453,-2.7112884521484375,2.6183013916015625,-0.3784637451171875,0.9511402375617131,-0.9817565637188571,0.2614516425784854,0
311,15.502,-6.45428466796875,-1.57720947265625,-4.21337890625,0.857392708505611,-0.9299630544257181,0.6233685561613853,0
312,15.552,-1.138031005859375,-1.955535888671875,4.875762939453125,0.9535144091093134,-0.9934631539068394,0.70954099191218,0
313,15.602,-2.927978515625,1.7387847900390625,0.4272918701171875,0.8282946339288638,-0.9952676894031904,0.4911204254937127,1
314,15.652,-0.725128173828125,0.8166656494140625,0.3944091796875,0.8238496823621569,-0.9995857053787982,0.3558321101922076,0
315,15.702,0.0028076171875,0.0168914794921875,1.0497894287109375,0.9998705754464273,-0.9995011402327534,0.0026741017760526105,0
316,15.752,0.8621826171875,-0.3470458984375,0.655548095703125,0.9892784856430503,-0.9980699208413097,-0.0676651467576343,0
317,15.801,0.832275390625,-0.6197967529296875,0.888336181640625,0.9272970808035643,-0.9998942869374873,-0.11607499910266308,0
318,15.851,0.64447021484375,-0.4260101318359375,0.2508392333984375,0.5073883169633181,-0.9999962737679344,0.7934402004560128,0
319,15.901,0.61212158203125,-0.6556243896484375,-0.109649658203125,-0.16495360028651157,-0.9989787699489008,0.6773979044634866,0
320,15.951,0.539886474609375,-1.2654876708984375,0.2418365478515625,-0.18678507240862266,-0.9978511980637005,0.7362707246287947,0
321,16.001,0.214935302734375,-1.7313385009765625,0.2354278564453125,-0.13216089881266946,-0.9956293482519026,0.7524125719246154,0
322,16.051,0.352996826171875,-1.1856842041015625,0.457183837890625,0.007069699498746671,-0.9870466404185926,0.7494319561148141,0
323,16.1,0.5396575927734375,-0.6605072021484375,0.753997802734375,0.08891455968265012,-0.9848343036748943,0.7464068489421078,0
324,16.15,0.4700775146484375,-0.4440460205078125,0.354461669921875,0.6238628148445493,-0.9804813079779976,0.6374597175929393,0
325,16.2,0.302032470703125,-0.4790191650390625,0.5428009033203125,0.7497849545338406,-0.9741193959956423,0.38503889627992355,0
326,16.25,-0.0434112548828125,-0.8704071044921875,0.3789520263671875,0.39918155889390666,-0.9790145659317471,-0.04568093361246007,0
327,16.3,-0.3035736083984375,-1.1351470947265625,0.5134429931640625,0.4421858568342345,-0.9772591207236729,-0.08069838799372069,0
328,16.35,0.1563873291015625,-0.8056488037109375,0.8170318603515625,0.4054518981418375,-0.9847532584528653,-0.15003143643623457,0
329,16.399,0.7723236083984375,-0.319488525390625,0.4854736328125,0.8353396657757758,-0.9913715074763616,0.7990423065176538,0
330,16.449,0.5542449951171875,-0.2663116455078125,0.709747314453125,0.9362613294997575,-0.9969776371308757,0.5902068675266948,0
331,16.499,-1.44903564453125,-2.133209228515625,0.9301910400390625,0.974965422624614,-0.999318942167334,0.6341172187454941,0
332,16.549,0.1150665283203125,-1.5307159423828125,1.9425201416015625,0.9704151240585707,-0.9999083116841414,0.5031546745304332,0
333,16.599,1.6342315673828125,-0.18145751953125,0.717529296875,0.991281073261457,-0.9992233529468695,0.3698243520144632,0
334,16.649,3.293731689453125,0.727996826171875,1.209686279296875,0.9972800011459477,-0.9999215468767683,0.3169263776136848,0
335,16.698,2.9921875,1.941619873046875,0.1964569091796875,0.9998815303729204,-0.9970635715568353,0.47953928513851213,0
336,16.748,-5.0660247802734375,4.1215362548828125,0.9464111328125,0.9997920723960292,-0.9977602468574563,0.8392146993551689,0
337,16.798,-4.4555816650390625,-1.769317626953125,-2.9055938720703125,0.7852237257909985,-0.9818953824012848,0.8782326813732438,0
338,16.848,-4.2724151611328125,-0.528778076171875,1.0522613525390625,0.9727896069243667,-0.9997075976169454,0.7514561146217472,0
339,16.898,-0.8748626708984375,1.723907470703125,-0.4947052001953125,0.9541847171731054,-0.995104466535038,0.7104352213119387,0
340,16.948,-0.6375885009765625,-0.0144805908203125,1.8457183837890625,0.9773180454169206,-0.9893627407038399,0.6173683548313001,1
341,16.997,-0.0560455322265625,0.1137542724609375,0.6858673095703125,0.9865235220577728,-0.9896434822829554,-0.08035293811099418,0
342,17.047,0.7470245361328125,-0.5904083251953125,0.665496826171875,0.9992675725770215,-0.9861559481539922,-0.1802923227299834,0
343,17.097,1.03533935546875,-0.73773193359375,0.89178466796875,0.9892611534831793,-0.9911001833992248,-0.24132780114266905,0
344,17.147,0.87384033203125,-0.6178131103515625,0.411041259765625,0.9560592934018569,-0.9972381833653261,-0.2601857276659835,0
345,17.197,0.403045654296875,-0.8661041259765625,0.4794769287109375,0.4843363187573731,-0.9976113349509598,0.3770768637467464,0
346,17.247,-0.1896820068359375,-1.6201934814453125,0.2563323974609375,0.5539773549757938,-0.9935763713432443,0.4096313666160172,0
347,17.296,-0.1360321044921875,-1.600982666015625,0.9432373046875,0.6364947560381068,-0.9884616562555923,0.3753575205779517,0
348,17.346,0.4117279052734375,-0.5703125,0.9246978759765625,0.6027014454938682,-0.9904752889214997,0.28051790323054976,0
349,17.396,0.942962646484375,0.0587310791015625,0.4936065673828125,0.9929957361092325,-0.9841922739269278,0.8846117414679124,0
350,17.446,0.6937255859375,-0.0919952392578125,0.6704254150390625,0.9907163439761327,-0.9733378458396735,0.7158323444400791,0
351,17.496,0.2632598876953125,-0.5538787841796875,0.3656158447265625,0.5509008229640213,-0.9627756133783582,0.36872347061211325,0
352,17.546,-0.3963623046875,-1.319976806640625,0.1667633056640625,0.5932842625855315,-0.9506856747416178,0.4030707730301449,0
353,17.595,-0.0048065185546875,-1.1708221435546875,0.8872833251953125,0.5633458542409057,-0.9559562254531356,0.3592775458217374,0
354,17.645,0.6082916259765625,-0.5281982421875,0.6111602783203125,0.7565914769406361,-0.971634934438242,0.6015531800580869,0
355,17.695,0.6934356689453125,-0.2923736572265625,0.38494873046875,0.7963488954626956,-0.9706946073513997,0.8203491011247811,0
356,17.745,0.47637939453125,-0.45831298828125,0.6408538818359375,0.8133970286668136,-0.9608431299898431,0.5174120436101193,0
357,17.795,0.15142822265625,-0.850189208984375,0.425384521484375,0.4474575473949049,-0.9553011700559996,0.15730273073644294,0
358,17.845,0.0978851318359375,-1.0453948974609375,0.3488922119140625,0.42495011927770626,-0.957464568863384,0.20602837295900447,0
359,17.895,0.1591644287109375,-0.852386474609375,0.59033203125,0.569352308377619,-0.9638934737605134,0.15173057611811486,0
360,17.944,0.451690673828125,-0.475250244140625,0.428802490234375,0.6698940198930929,-0.9609243363759565,0.576556994647393,0
361,17.994,-0.2324371337890625,-1.12811279296875,0.0164947509765625,0.6761058475457671,-0.9501298477361165,0.6343834355999721,0
362,18.044,-1.197174072265625,-2.4519195556640625,-0.306732177734375,0.6948767547862518,-0.9561502630592598,0.6492156720299601,0
363,18.094,0.1643524169921875,-1.8922271728515625,0.176300048828125,0.6994774039735057,-0.9875074280361235,0.5580323223642254,0
364,18.144,0.807373046875,-0.960357666015625,0.8415679931640625,0.771062123346549,-0.9999474271836045,0.44006714309743333,0
365,18.194,2.449676513671875,0.3946990966796875,1.56329345703125,0.8246402057258567,-0.9955362177990283,0.3200096360350249,0
366,18.243,2.7933807373046875,0.284027099609375,0.2369384765625,0.9647707279131423,-0.9888135541552303,0.3799615464150689,0
367,18.293,3.726593017578125,2.0875244140625,2.711395263671875,0.979994641905653,-0.9601326739592556,0.5464001252512825,0
368,18.343,-7.314849853515625,4.1447601318359375,0.7437591552734375,0.9693395046197884,-0.9447072677849295,0.8969060314599057,0
369,18.393,-2.8314666748046875,-1.694244384765625,-0.8377532958984375,0.9625316178774924,-0.9117352586992555,0.9471763818267254,1
370,18.443,-5.04833984375,0.5303497314453125,-0.0181884765625,0.997757250233592,-0.9646973427628526,0.8168298752549847,0
371,18.493,-0.583587646484375,0.7965087890625,-1.1623992919921875,0.9974579802479705,-0.9954347709309056,0.6988013863075112,0
372,18.542,-0.0123291015625,-0.281982421875,1.5107421875,0.9999779789371884,-0.9996070115265889,0.5677877444916527,0
373,18.592,0.7867431640625,-0.0074462890625,0.004852294921875,0.5459535203237685,-0.998572185737748,0.9999361963506366,0
374,18.642,1.300872802734375,-0.2712554931640625,0.7827301025390625,0.5024926414198968,-0.9896966379129946,0.9983386991383303,0
375,18.692,0.9165802001953125,-0.38543701171875,0.210052490234375,0.47852573876152255,-0.9911802364509147,0.901906933550518,0
376,18.742,0.8874359130859375,-0.40185546875,0.656158447265625,0.3977185487942946,-0.9952893101079482,0.9217634784127811,0
377,18.792,0.522216796875,-0.510589599609375,0.88653564453125,0.34505960739763497,-0.9972422587759479,0.9388225625873732,0
378,18.841,0.53289794921875,-0.2247161865234375,1.083648681640625,0.19828369958396547,-0.9987911331575074,0.9571167851508458,0
379,18.891,-0.18267822265625,-1.23260498046875,-0.3447418212890625,0.2586524851630539,-0.992466974611834,0.9870667974794948,0
380,18.941,-0.1216278076171875,-2.0878448486328125,1.735260009765625,0.3558869324495441,-0.9856165540180248,0.9855930802212608,0
381,18.991,0.5264434814453125,-0.7700653076171875,0.868682861328125,0.20360581960014051,-0.9890029712201135,0.9761644646126947,0
382,19.041,0.8064117431640625,-0.216400146484375,0.242218017578125,0.7457325757593888,-0.9879510876170121,0.9275852481531391,0
383,19.091,0.2045135498046875,-0.53045654296875,-0.331451416015625,-0.5299024540215967,-0.9842591609584613,0.3107728341385585,0
384,19.14,-0.2350616455078125,-1.2675628662109375,0.4692230224609375,-0.3352406135864667,-0.9813284493071934,0.34391312638485266,0
385,19.19,-0.3924560546875,-1.334136962890625,0.6100921630859375,-0.1965835012223298,-0.9861513434028029,0.3082621525538971,0
386,19.24,-0.38397216796875,-0.813690185546875,1.01513671875,-0.1232915868509825,-0.9948501423351019,0.2140253677006383,0
387,19.29,0.0987548828125,-0.0565185546875,0.8395843505859375,0.9977418621871825,-0.9986204409453358,0.11655800407838059,0
388,19.34,0.1456146240234375,0.1241455078125,1.1714935302734375,0.9997845627811475,-0.9999956483482032,0.09589441958601086,0
389,19.39,-0.0038909912109375,-0.0150146484375,0.821624755859375,0.9998330660963688,-0.9999994689619585,-0.004734884185953897,0
390,19.439,-0.2580718994140625,-0.2576904296875,0.95025634765625,0.9651419202490092,-0.9999988331839048,-0.25354928715751834,0
391,19.489,-0.1135101318359375,-0.1497039794921875,0.7984466552734375,0.9828732501230963,-0.9999141768154755,-0.1383845084841256,0
392,19.539,-0.106719970703125,-0.064666748046875,0.756134033203125,0.9963628597246219,-0.9993045617120941,-0.13925543085451728,0
393,19.589,-0.30718994140625,-0.4244537353515625,0.9435272216796875,0.911969791569597,-0.9965063358389785,-0.28463405241771694,0
394,19.639,-0.378021240234375,-0.870025634765625,1.4005889892578125,0.8296625710607574,-0.9963860730961797,-0.25503046243521493,0
395,19.689,-0.74566650390625,-1.383636474609375,1.0697174072265625,0.6666362020779639,-0.9993908002583008,-0.2827749470435958,0
396,19.738,-0.487213134765625,-1.170654296875,0.532073974609375,0.4963513058018553,-0.9999310423739212,-0.39108758604262567,0
397,19.788,0.269775390625,-0.691009521484375,0.4332733154296875,0.5312259942684386,-0.9986293519700832,0.314032456001337,0
398,19.838,0.46343994140625,-0.47747802734375,0.0123291015625,0.0258126924430964,-0.997798466609535,0.6963600195549315,0
399,19.888,0.3412933349609375,-0.370391845703125,0.103363037109375,0.2687938310828011,-0.9999749052748291,0.6637948780046776,0
400,19.938,0.112579345703125,-0.774505615234375,0.194854736328125,0.24398291131354136,-0.9964837863597942,0.13958366395396166,0
401,19.988,-0.582122802734375,-1.42919921875,-0.032501220703125,0.3440790549757211,-0.9929067121339243,0.141546674993287,0
402,20.037,0.1302947998046875,-0.8581695556640625,0.6057586669921875,0.5766780647511396,-0.9968468939626823,0.12309639183873598,0
403,20.087,0.64788818359375,-0.1075897216796875,0.635986328125,0.9859907631633708,-0.9983997879507672,0.7086722576003018,0
404,20.137,1.0694732666015625,0.22625732421875,1.13873291015625,0.9754854132688199,-0.9988880359486936,0.7455714996070523,0
405,20.187,-0.6539154052734375,-2.1700897216796875,-0.2834625244140625,0.9609506883717972,-0.9989506767185284,0.8292043506007956,0
406,20.237,-0.1289520263671875,-2.87109375,0.893310546875,0.9774927026063144,-0.9994771785409018,0.7612071752593413,0
407,20.287,1.116058349609375,-0.90301513671875,0.4978790283203125,0.996906646246834,-0.9973980752643321,0.6452332213057292,0
408,20.336,2.994842529296875,0.6489410400390625,1.04339599609375,0.9923663000436552,-0.9913891702716002,0.5733477312600608,0
409,20.386,4.0249176025390625,1.4932708740234375,1.2095794677734375,0.9686577001365905,-0.9773923991817219,0.652166086554257,0
410,20.436,-3.22589111328125,3.43927001953125,-0.278839111328125,0.9370250804750072,-0.9763135086756516,0.9092108406491526,0
411,20.486,-7.39691162109375,-1.77044677734375,-4.203033447265625,0.9867966010222058,-0.9158370131338429,0.9957201584826771,0
412,20.536,-2.492156982421875,-1.6261138916015625,3.194732666015625,0.9527732353202018,-0.9705474386233929,0.9924315645965729,0
413,20.586,-1.60736083984375,1.431671142578125,-0.2576141357421875,0.9854599492300073,-0.9898042181607017,0.9366869261708043,1
414,20.635,-1.0891265869140625,0.2194061279296875,1.2752532958984375,0.9961014530145342,-0.997892449517777,0.8693873284777541,0
415,20.685,0.040985107421875,-0.342193603515625,0.2543792724609375,0.5965934474416043,-0.9999957342145386,0.09568100510545836,0
416,20.735,0.9968719482421875,-0.4862518310546875,0.5262451171875,0.5540630836104585,-0.9988503043290154,-0.0017490343936216923,0
417,20.785,1.1482086181640625,-0.5507659912109375,0.4212493896484375,0.49640695136369156,-0.9953334664700972,-0.030162559743177223,0
418,20.835,1.0977630615234375,-0.434051513671875,0.2878875732421875,0.4453285543900847,-0.9959621873977548,-0.011280410221763024,0
419,20.885,0.9003143310546875,-0.5524444580078125,0.5941009521484375,0.4082165703340279,-0.9962498335684157,0.05908137790281878,0
420,20.934,0.920989990234375,-0.050048828125,0.8703460693359375,0.4026810623852578,-0.998789850397355,0.13484585426597492,0
421,20.984,-0.0716705322265625,-1.391265869140625,1.06573486328125,0.3850560303988113,-0.9987554994012717,0.25690104714982126,0
422,21.034,-0.0366058349609375,-1.513580322265625,0.741119384765625,0.3805353291440544,-0.9952985496667536,0.2646091727359894,0
423,21.084,0.2486114501953125,-0.8739471435546875,0.5787506103515625,0.5521344034256712,-0.9920870503089617,0.2307758765264677,0
424,21.134,0.45745849609375,-0.5053253173828125,0.33355712890625,0.5508910081813305,-0.9888797275049238,0.6028160803406001,0
425,21.184,0.5038604736328125,-0.346466064453125,0.3581390380859375,0.7187225775486412,-0.9899439149215177,0.7110196234826599,0
426,21.233,0.4580230712890625,-0.3590850830078125,0.4174652099609375,0.7581268352882002,-0.9946717516956213,0.6394797491858396,0
427,21.283,0.1777801513671875,-1.1645355224609375,0.1272125244140625,0.7107042439291943,-0.9995142756984275,0.7054668301047062,0
428,21.333,-0.7882232666015625,-2.5493011474609375,0.4119873046875,0.7433739243193601,-0.9977808931173779,0.6963895055386623,0
429,21.383,0.4117279052734375,-1.4030609130859375,0.93646240234375,0.7592783301357072,-0.9923693971872074,0.609670993832377,0
430,21.433,1.347747802734375,-0.2346954345703125,0.6586456298828125,0.8236012227291083,-0.988077395176409,0.5518896205940469,0
431,21.483,2.452056884765625,0.0171051025390625,0.94549560546875,0.9105194569181297,-0.9875777025325564,0.5739159367276019,0
432,21.532,2.2198638916015625,0.14398193359375,1.05987548828125,0.9544221081677833,-0.9806403028525381,0.6790721604025582,0
433,21.582,-0.9095001220703125,2.2553558349609375,0.6941680908203125,0.971355234176841,-0.9940368778374302,0.7962503689175849,0
434,21.632,-8.067703247070312,-0.391326904296875,-3.8976898193359375,0.9364754988769293,-0.9669214203357949,0.9698198285823229,0
435,21.682,-2.449310302734375,-2.3191680908203125,3.479034423828125,0.9685928279828825,-0.9812746412554347,0.9686641666611986,0
436,21.732,-1.87823486328125,1.68707275390625,-0.2541656494140625,0.8975395393941398,-0.9787649931812691,0.8627015077516974,0
437,21.782,-1.5165863037109375,-0.1719970703125,0.736602783203125,0.9059831396044516,-0.9900827804153772,0.7639615223365116,1
438,21.831,-0.325347900390625,-0.272247314453125,0.8241424560546875,0.9495324967124961,-0.9925378085878627,-0.3509989085844868,0
439,21.881,0.596038818359375,-0.4553070068359375,1.12615966796875,0.8905275992333809,-0.9883747224602532,-0.43907798717857793,0
440,21.931,1.0483551025390625,-0.184356689453125,0.65887451171875,0.7565006536116698,-0.9798855902504167,-0.45541159731351083,0
441,21.981,0.6866912841796875,-0.5645599365234375,0.29180908203125,0.4591688121419947,-0.9838086866276039,0.7339254840849461,0
442,22.031,0.51348876953125,-0.91827392578125,0.581817626953125,0.4420349178995184,-0.9973058992731486,0.7689465105545416,0
443,22.081,0.493408203125,-0.9371490478515625,0.5089111328125,0.3949505349344288,-0.9999194858706228,0.8196075394905447,0
444,22.131,0.0010833740234375,-1.5183258056640625,0.3365020751953125,0.3329089863900461,-0.9998629147706739,0.8521655554906618,0
445,22.18,0.0191650390625,-1.28460693359375,0.0712890625,0.2863866025636012,-0.9981020954813558,0.8567068106514943,0
446,22.23,-0.078826904296875,-1.048828125,-0.0521087646484375,-0.0496216395961837,-0.9988062370202231,-0.07485394297760702,0
447,22.28,0.1225738525390625,-0.851531982421875,0.0042877197265625,0.005035237031770223,-0.9990794092363948,0.1424748228593793,0
448,22.33,0.007720947265625,-0.836578369140625,-0.122314453125,-0.14466989176018505,-0.9986503261295049,0.00913172567707624,0
449,22.38,0.2053680419921875,-0.8353424072265625,0.2032470703125,0.23641271990025564,-0.9988908559190263,0.23234260709215152,0
450,22.43,0.174560546875,-0.7672882080078125,0.1230621337890625,0.15836191403713568,-0.9992323905040191,0.21917080060153496,0
451,22.479,-0.3470611572265625,-1.38037109375,-0.666473388671875,0.21132352004638116,-0.9934942447370905,0.20636857839107814,0
452,22.529,-0.472808837890625,-2.0243988037109375,-0.041748046875,0.3270920498350928,-0.996518143537366,0.14378414155986408,0
453,22.579,0.178192138671875,-1.2706298828125,0.2649383544921875,0.3915034257733314,-0.9999127970504706,-0.01181813275394415,0
454,22.629,1.177703857421875,-0.2652740478515625,0.712066650390625,0.515539150717631,-0.9990168899187368,-0.14143194459459738,0
455,22.679,1.7617034912109375,0.0785369873046875,0.7888641357421875,0.6362189332741123,-0.9974767085121835,-0.17633621649345074,0
456,22.729,1.894287109375,0.0967864990234375,0.5845794677734375,0.7597001386271469,-0.9935144101573888,-0.12422356715655565,0
457,22.778,1.8420867919921875,0.3997650146484375,1.33087158203125,0.8577110532046978,-0.9843473543671855,0.048126578478363935,0
458,22.828,-1.716094970703125,1.5652313232421875,0.3859405517578125,0.8841271270772638,-0.9730166660730787,0.24290118159533836,0
459,22.878,-7.44354248046875,-1.2949676513671875,-3.8301239013671875,0.8273886848303622,-0.9314557444706129,0.5980896160691883,0
460,22.928,-1.9043426513671875,-2.33404541015625,4.2159576416015625,0.9209822745182829,-0.9789009704645069,0.6028171365831233,0
461,22.978,-0.0432891845703125,1.88653564453125,-0.0515899658203125,0.7298456262912544,-0.9537592593024149,0.4713245736539076,0
462,23.028,-1.6875762939453125,-0.123382568359375,0.5802764892578125,0.7635912996524017,-0.9746427792048221,0.33363833802826026,1
463,23.077,-0.9068450927734375,-0.36651611328125,0.65081787109375,0.7443367428423239,-0.9789729622124358,0.22860585625646263,0
464,23.127,-0.118377685546875,-0.6097564697265625,0.887115478515625,0.8241006497508708,-0.9824076732857888,-0.10930995079836375,0
465,23.177,0.6539154052734375,-0.5841217041015625,0.7210845947265625,0.7696033225621333,-0.985405891615047,-0.1948861670674298,0
466,23.227,0.8619537353515625,-0.4796295166015625,0.648712158203125,0.765576316637065,-0.9835988469122764,-0.21521126742188537,0
467,23.277,0.797607421875,-0.8105010986328125,1.0083770751953125,0.7302786822188363,-0.9907525105462217,-0.17396108748978625,0
468,23.327,0.4906463623046875,-0.781524658203125,0.8468780517578125,0.6705893190116697,-0.9922251467880009,-0.13857683948813232,0
469,23.376,0.6247711181640625,-0.537384033203125,0.40081787109375,0.5978784166629774,-0.9956506076375368,0.6817722823013089,0
470,23.426,0.497406005859375,-0.6616973876953125,0.6155548095703125,0.6811172038152274,-0.9976859752710163,0.4821773053170251,0
471,23.476,0.5073699951171875,-0.7057342529296875,0.541107177734375,0.6084628817504153,-0.998440389131569,0.49554795699762105,0
472,23.526,0.1619415283203125,-0.9831390380859375,0.6131591796875,0.5989939530328251,-0.9970618969277617,0.5248948581445525,0
473,23.576,0.0534820556640625,-1.0252532958984375,0.6143798828125,0.483563856273215,-0.9890825172732144,0.531711146201822,0
474,23.626,0.285125732421875,-0.844970703125,0.3103790283203125,0.34479947904730446,-0.9712099749056079,0.30196012937112887,0
475,23.675,0.1895599365234375,-0.8528289794921875,-0.0157318115234375,-0.018443481626144252,-0.9495678584952222,0.21694152072785933,0
476,23.725,0.438201904296875,-0.800079345703125,0.077056884765625,0.09586794842127086,-0.9172526993035437,0.4786632254555121,0
477,23.775,0.036407470703125,-0.910003662109375,-0.3594512939453125,-0.3673781501794004,-0.8831010640134241,0.03718461798318143,0
478,23.825,-0.2792510986328125,-0.93865966796875,-0.380126953125,-0.3753567381723255,-0.8209204752952404,-0.2658257110524086,0
479,23.875,-0.522186279296875,-0.9499664306640625,-0.714599609375,-0.4670692458943855,-0.769496785766831,-0.2174044595499407,0
480,23.925,-0.1313934326171875,-0.694549560546875,-0.448638916015625,-0.5425899997442689,-0.7068496507367401,-0.15693982845136936,0
481,23.974,-0.3553466796875,-0.6837921142578125,-0.709930419921875,-0.7202414295489171,-0.6593881268715985,-0.3391422693077082,0
482,24.024,-0.4902191162109375,-0.5669403076171875,-0.750885009765625,-0.7980692219532801,-0.6243852421469944,-0.4620671242860136,0
483,24.074,-0.3670196533203125,-0.6230316162109375,-0.8009185791015625,-0.789306871174246,-0.5999414771655128,-0.34013315376756587,0
484,24.124,-0.3219451904296875,-0.5691070556640625,-0.6787567138671875,-0.7662875695600948,-0.5579680121202806,-0.3415987199641853,0
485,24.174,-0.394927978515625,-0.631866455078125,-0.9700775146484375,-0.7962829324625283,-0.5277005795529055,-0.32865028616509784,0
486,24.224,-0.2888946533203125,-0.5672760009765625,-0.7372589111328125,-0.7925441014860123,-0.4986721337303659,-0.2965850239567191,0
487,24.273,-0.1898345947265625,-0.51483154296875,-0.809051513671875,-0.843670660241499,-0.4935061571918119,-0.19418927307109135,0
488,24.323,-0.2038116455078125,-0.5379180908203125,-0.832061767578125,-0.8397886634536701,-0.5005641910574206,-0.20148563750407097,0
489,24.373,-0.22998046875,-0.5258941650390625,-0.8523406982421875,-0.8510441250187403,-0.5101614680258764,-0.22380576074402903,0
490,24.423,-0.2347869873046875,-0.53826904296875,-0.8250732421875,-0.8375280059870926,-0.5230134443523781,-0.23183771978903747,0
491,24.473,-0.1573944091796875,-0.5030059814453125,-0.84698486328125,-0.8598062910921778,-0.5354201090857281,-0.15777579010338935,0
492,24.523,-0.263275146484375,-0.6244354248046875,-0.792388916015625,-0.785429506729996,-0.5424906540376974,-0.2525064052987821,0
493,24.572,-0.1497039794921875,-0.570648193359375,-0.8536834716796875,-0.8313638192932314,-0.5305113991873249,-0.14426485912585418,0
494,24.622,-0.0866546630859375,-0.49884033203125,-0.9181060791015625,-0.8786768498611247,-0.5160749089302156,-0.08264942811318796,0
495,24.672,-0.080291748046875,-0.4977874755859375,-0.866607666015625,-0.8671275704899615,-0.5131238501193268,-0.0800818888472472,0
496,24.722,-0.042022705078125,-0.483673095703125,-0.8444976806640625,-0.8677545016729538,-0.5146504512887176,-0.043139779716886685,0
497,24.772,-0.05633544921875,-0.4617462158203125,-0.8300628662109375,-0.8738888971107885,-0.5104342440008216,-0.059205831882558964,0
498,24.822,-0.1663360595703125,-0.4739532470703125,-0.813232421875,-0.8639787399570035,-0.48225008823698085,-0.17401927313211157,0
499,24.871,-0.087127685546875,-0.519927978515625,-0.849395751953125,-0.8529005935192174,-0.438377224944113,-0.08715429433443093,0
500,24.921,-0.0398101806640625,-0.31964111328125,-0.8065185546875,-0.9296510396374305,-0.4167305832335168,-0.04583982756205301,0
501,24.971,0.0167694091796875,-0.4455108642578125,-0.8311614990234375,-0.8813714616234152,-0.4110455106861267,0.01777962815695834,0
502,25.021,-0.2117156982421875,-0.5556182861328125,-0.9128265380859375,-0.8542048973391054,-0.4386629655274686,-0.1943419600305102,0
503,25.071,-0.38140869140625,-0.576171875,-0.9342193603515625,-0.8463606507354824,-0.4657877389539213,-0.18050255561866443,0
504,25.121,-0.2796630859375,-0.5184783935546875,-0.8347320556640625,-0.8494719382413288,-0.48269185337379605,-0.2737314195717037,0
505,25.17,-0.25628662109375,-0.453948974609375,-0.880584716796875,-0.8888453147331407,-0.4807749376143077,-0.250446439595183,0
506,25.22,-0.2080535888671875,-0.4075775146484375,-0.920257568359375,-0.914336559185956,-0.48833660753118757,-0.20243506486115082,0
507,25.27,-0.2704315185546875,-0.4701690673828125,-0.83917236328125,-0.8724029351801128,-0.4935826834666017,-0.270647796610249,0
508,25.32,-0.3185577392578125,-0.5050811767578125,-0.97900390625,-0.8721191240549279,-0.4838415520251421,-0.2620423238665976,0
