index,time,acc x,acc y,acc z,sin ori x,sin ori y,sin ori z,user input
0,0,-0.3216705322265625,-0.636322021484375,-0.6629638671875,-0.7214543460235225,0,-0.33039259548395195,0
1,0.05,-0.3174896240234375,-0.6267242431640625,-0.6876220703125,-0.7390763923344761,0.008068198345571424,-0.3229605617616639,0
2,0.1,-0.3370819091796875,-0.6313934326171875,-0.69952392578125,-0.742332023359304,0.00862789541320463,-0.3368099434069304,0
3,0.15,-0.3369903564453125,-0.610015869140625,-0.698699951171875,-0.7532957262199413,0.0058966569675719315,-0.34148248435745515,0
4,0.2,-0.361541748046875,-0.636199951171875,-0.692779541015625,-0.7365437431911347,-0.004209846582132931,-0.35878850906336374,0
5,0.249,-0.31646728515625,-0.6114044189453125,-0.696868896484375,-0.7516971258542161,-0.012918715767145917,-0.3230615321927793,0
6,0.299,-0.34033203125,-0.6560516357421875,-0.7110137939453125,-0.7349419030613973,-0.03308705268235459,-0.3318504290635576,0
7,0.349,-0.34051513671875,-0.6522674560546875,-0.5326690673828125,-0.6325231575998624,-0.049032151014803266,-0.3748630835999978,0
8,0.399,-0.493408203125,-0.7564849853515625,-0.668212890625,-0.6220505212371262,-0.05482327255411781,-0.37925145481357525,0
9,0.449,-0.364593505859375,-0.6680908203125,-0.563385009765625,-0.6446592825714164,-0.058549250418899246,-0.38502687971707356,0
10,0.499,-0.399078369140625,-0.69207763671875,-0.595672607421875,-0.6523450692948074,-0.08812080611590135,-0.40047024847929064,0
11,0.548,-0.4201812744140625,-0.718719482421875,-0.5950164794921875,-0.6377039215096869,-0.17382984980436594,-0.41061167135247906,0
12,0.598,-0.508087158203125,-0.9520721435546875,-0.7051239013671875,-0.6237630144785853,-0.24160916165952145,-0.43476909081760756,0
13,0.648,-0.4046173095703125,-0.899688720703125,-0.7336273193359375,-0.6023762034413153,-0.2593529238516047,-0.48093276727611406,0
14,0.698,-0.180328369140625,-0.778717041015625,-0.3533477783203125,-0.41320729065737943,-0.2919437628420582,-0.20633924943360168,0
15,0.748,-0.2029571533203125,-0.706451416015625,-0.326812744140625,-0.419861074870334,-0.30506429847341965,-0.2523063223154265,0
16,0.798,-0.194549560546875,-0.7595367431640625,-0.1114501953125,-0.14517982606573385,-0.28842189907608967,-0.24566243043437827,0
17,0.848,-0.3674774169921875,-0.814056396484375,-0.2884521484375,-0.33399169659185124,-0.2797327124217338,-0.39152494275922556,0
18,0.897,-0.348114013671875,-0.9221649169921875,-0.4397735595703125,-0.43045006133135066,-0.23129481001126792,-0.32252524214026257,0
19,0.947,-0.354095458984375,-0.858428955078125,-0.5886993408203125,-0.5655690931292506,-0.1553367425956743,-0.32205793945329336,0
20,0.997,-0.4092254638671875,-0.7497406005859375,-0.6029205322265625,-0.6266755322069016,-0.09604029147722762,-0.3914125668682337,0
21,1.047,-0.4221038818359375,-0.7285614013671875,-0.5045928955078125,-0.5693657526199482,-0.05013893389186131,-0.43000528319061054,0
22,1.097,-0.3252105712890625,-0.6903533935546875,-0.329681396484375,-0.43093669650477173,-0.022402106323067286,-0.3912129328076382,0
23,1.147,-0.5033416748046875,-0.8049774169921875,-0.4209136962890625,-0.463366645087964,-0.006850147037662776,-0.48467524366486026,0
24,1.196,-0.4068450927734375,-0.7669525146484375,-0.2467498779296875,-0.306267269003556,0.009852932687492657,-0.45076514156372327,0
25,1.246,-0.3858795166015625,-0.7713775634765625,-0.3343048095703125,-0.3976486949856381,0.019818861545885736,-0.41715216245288506,0
26,1.296,-0.3917694091796875,-0.7537078857421875,-0.54486083984375,-0.5858553053891805,-0.015430920279230192,-0.3882079853678037,0
27,1.346,-0.551055908203125,-0.7881622314453125,-0.529266357421875,-0.5574862541249392,-0.0561828385945673,-0.502001260615691,0
28,1.396,-0.465118408203125,-0.7842254638671875,-0.23516845703125,-0.28723674428161317,-0.10936318636996033,-0.493955339800618,0
29,1.446,-0.617034912109375,-0.83648681640625,-0.2002716064453125,-0.23283950505335219,-0.12075633111803047,-0.5828998249286756,0
30,1.496,-0.596954345703125,-0.829193115234375,-0.3228302001953125,-0.3628037254585448,-0.11847490823165327,-0.5571147158866196,0
31,1.545,-0.4597320556640625,-0.764801025390625,-0.4228057861328125,-0.48381986370750757,-0.13262750948473018,-0.4655794624503758,0
32,1.595,-0.580413818359375,-0.8313751220703125,-0.4420928955078125,-0.4979773033418873,-0.1283256632283961,-0.4598700982482207,0
33,1.645,-0.4838409423828125,-0.8252105712890625,-0.4060516357421875,-0.44150383494244194,-0.12416284491137478,-0.4655864078918715,0
34,1.695,-0.5252532958984375,-0.8234100341796875,-0.3925018310546875,-0.4302926249258563,-0.12692855701130712,-0.49900874571158665,0
35,1.745,-0.437713623046875,-0.727752685546875,-0.3787994384765625,-0.4617058124486789,-0.12422549953463541,-0.4707125490022874,0
36,1.795,-0.3970184326171875,-0.722686767578125,-0.36322021484375,-0.4490689752425432,-0.12921612549539238,-0.4406344654540272,0
37,1.844,-0.4315032958984375,-0.7585601806640625,-0.407379150390625,-0.47313045867932113,-0.10915687644518951,-0.4480346572877993,0
38,1.894,-0.4620819091796875,-0.833770751953125,-0.40606689453125,-0.43785690402282557,-0.08234589943951269,-0.4459652458123728,0
39,1.944,-0.410247802734375,-0.8065338134765625,-0.4627227783203125,-0.49763505093004673,-0.05362799950646831,-0.40365888253283166,0
40,1.994,-0.3495025634765625,-0.7462921142578125,-0.5093841552734375,-0.5637512447306865,-0.028899400828688804,-0.36075769348470077,0
41,2.044,-0.34637451171875,-0.7551727294921875,-0.4888916015625,-0.5434474792853414,-0.00417310008263118,-0.3593134966428516,0
42,2.094,-0.3402557373046875,-0.705810546875,-0.7093048095703125,-0.7088506381764611,-0.004124058390838886,-0.3219348715819777,0
43,2.144,-0.3131561279296875,-0.7027130126953125,-0.61004638671875,-0.6555614370697074,-0.018024315746148514,-0.31894506034145675,0
44,2.193,-0.47125244140625,-0.8891448974609375,-0.262786865234375,-0.2834304208955755,-0.037319029386256045,-0.45310337573081905,0
45,2.243,-0.4963836669921875,-0.81890869140625,-0.583831787109375,-0.27286138797677895,-0.019255214856477083,-0.46763049538453416,0
46,2.293,-0.378082275390625,-0.771392822265625,-0.526336669921875,-0.5636197048441417,-0.021490753734621188,-0.37527384271575226,0
47,2.343,-0.3811187744140625,-0.7962493896484375,-0.5245819091796875,-0.5501533606134765,-0.02591192656970725,-0.37114805153489094,0
48,2.393,-0.3436279296875,-0.84283447265625,-0.3483123779296875,-0.38193353008748504,-0.031104131948673907,-0.3525972026945192,0
49,2.443,-0.380157470703125,-0.85662841796875,-0.382415771484375,-0.407644059138237,-0.0157325941948535,-0.3755708806836595,0
50,2.492,-0.2141876220703125,-0.80291748046875,-0.3541717529296875,-0.4035862674434525,-0.034415325888981003,-0.23711107073872,0
51,2.542,-0.2579345703125,-0.8352508544921875,-0.5786285400390625,-0.5694613976284008,-0.08695415935643004,-0.24604448084275496,0
52,2.592,-0.270965576171875,-0.8925018310546875,-0.6429901123046875,-0.5356410113382069,-0.14639807613975206,-0.28056882066124356,0
53,2.642,-0.3535003662109375,-0.9844818115234375,-0.5762176513671875,-0.5020393479395399,-0.18271706676273877,-0.3171297053447308,0
54,2.692,-0.0701904296875,-0.7987518310546875,-0.253997802734375,-0.3030405933317427,-0.18453713205721253,-0.08345093991829372,0
55,2.742,0.25372314453125,-0.5835113525390625,-0.04449462890625,-0.07603250880773671,-0.22966694264771276,0.3977845273244674,0
56,2.792,-0.4188690185546875,-1.0325927734375,-0.244354248046875,-0.06275010860676114,-0.3236895941149143,0.42794176533836653,0
57,2.841,-0.75994873046875,-1.2091217041015625,-1.015625,-0.03849030837396522,-0.31702128252044587,0.39037401997506377,0
58,2.891,0.0350494384765625,-0.7765960693359375,-0.115814208984375,-0.14749939459524083,-0.31903455627644856,0.04459407923804356,0
59,2.941,0.2158355712890625,-0.99017333984375,0.09454345703125,0.09504943508985728,-0.43515733701974824,0.21205578408668083,0
60,3.016,-0.2688751220703125,-2.2239837646484375,-0.2916259765625,0.3357065363212568,-0.5217610909747148,0.16561405508358323,0
61,3.066,1.8394927978515625,-0.340484619140625,0.4072418212890625,0.5965660586231964,-0.5711147526681386,0.0015995261274375778,0
62,3.325,-2.3707427978515625,1.1740264892578125,-0.36083984375,0.47180782007401373,-0.7394818968680285,-0.07704675074948127,1
63,3.375,-0.233551025390625,0.1980133056640625,0.39495849609375,0.893943157033378,-0.7495566300075672,-0.46733805597451683,0
64,3.425,0.1135406494140625,-0.4300079345703125,0.797088623046875,0.8800991714937141,-0.7697881033486657,0.12439133985840024,0
65,3.474,0.534088134765625,-0.47235107421875,0.9925994873046875,0.7902258721764708,-0.7280228913777004,0.025823442762173517,0
66,3.524,0.8671112060546875,-0.3159942626953125,0.6915740966796875,0.6518593285872849,-0.6779677599527314,-0.08994188483573527,0
67,3.574,1.0319671630859375,-0.28961181640625,0.410003662109375,0.4201718241843984,-0.6118073455044679,-0.14120773041175694,0
68,3.624,0.4798583984375,-0.8461456298828125,0.4524383544921875,0.4715297458237071,-0.5383252107278864,0.4472900278317953,0
69,3.674,-0.8259735107421875,-1.923858642578125,-0.4405364990234375,0.3986965700235595,-0.6162773596829983,0.5040030282277513,0
70,3.724,-0.52099609375,-1.667266845703125,0.0884246826171875,0.41535097015258354,-0.6963873556761769,0.5291721128414951,0
71,3.774,0.4333648681640625,-0.7903289794921875,0.015869140625,0.020075111760269798,-0.6245781301308675,0.48072284483703875,0
72,3.823,0.4169158935546875,-0.6156158447265625,0.0010833740234375,0.0017598188141719423,-0.6198161932549856,0.560742267498888,0
73,3.873,0.1602783203125,-0.807830810546875,0.265167236328125,0.31187421062818893,-0.6647877268520729,0.18524725412834303,0
74,3.923,-0.373931884765625,-1.251434326171875,-0.20867919921875,0.31134900535035254,-0.6869660918638046,0.2330851829005069,0
75,3.973,-0.6527862548828125,-1.74591064453125,-0.8782958984375,0.2732104419819324,-0.688175440506126,0.25273831108565237,0
76,4.023,-0.2222900390625,-1.6903228759765625,-0.60565185546875,0.3377181349977704,-0.7111946936814799,0.21887408608064415,0
77,4.073,1.072418212890625,-1.0803985595703125,0.1847686767578125,0.49737084905566414,-0.6981784837277932,0.13777548551981644,0
78,4.122,1.9082794189453125,-0.242645263671875,1.0812530517578125,0.7217204722031467,-0.7370713945935466,0.08322542514585145,0
79,4.362,-2.5275115966796875,1.0202789306640625,-0.3615875244140625,0.5481159351426155,-0.8527216485347214,-0.03785203576523738,0
80,4.412,-0.121612548828125,0.2848968505859375,0.6016998291015625,0.903806898455019,-0.8765607835073608,-0.17969928840296467,1
81,4.461,0.420928955078125,-0.394439697265625,0.9126739501953125,0.9179413332220423,-0.889078067371459,0.38985974922322414,0
82,4.511,0.756561279296875,-0.065093994140625,0.250274658203125,0.9678012358599168,-0.9011540341083185,0.9462491020430548,0
83,4.561,1.3484649658203125,0.0278778076171875,0.3886260986328125,0.9260399399368338,-0.9032098848850235,0.919994008514731,0
84,4.611,1.3707733154296875,0.022491455078125,0.5848236083984375,0.8566476705672806,-0.8714649708126128,0.9320796734553675,0
85,4.661,-0.288177490234375,-1.906829833984375,0.3557281494140625,0.7875746554000693,-0.8479201272081432,0.9809847815780306,0
86,4.76,0.526092529296875,-2.1288604736328125,0.010345458984375,0.7498774965760338,-0.8044365252006362,0.948953932125593,0
87,4.81,1.3322296142578125,-0.6851959228515625,0.2708587646484375,0.8262376342936318,-0.7812495271942285,0.896252654645938,0
88,4.86,2.009307861328125,-0.0096435546875,0.8432464599609375,0.9226481090208137,-0.7451679968265585,0.852904099742473,0
89,5.003,-9.340972900390625,-2.50048828125,-6.325469970703125,0.7887842639886249,-0.7067941765179446,0.9952370189380363,0
90,5.08,-2.6036529541015625,0.6409454345703125,0.5038909912109375,0.6159996014188199,-0.7240554854913854,0.952277555394396,0
91,5.129,-0.212493896484375,-0.187164306640625,0.792755126953125,0.9732434419960493,-0.7892278355816013,-0.25242487520565715,1
92,5.179,-0.2423858642578125,-0.52020263671875,0.8772735595703125,0.8601466592364846,-0.8205544272513056,-0.23121406740019973,0
93,5.229,0.9235076904296875,-0.46478271484375,0.093841552734375,0.19791049218352744,-0.8449527924183926,0.8895952364637969,0
94,5.279,0.952392578125,-0.3778228759765625,0.8351593017578125,0.12174574884416851,-0.8788990233050689,0.8847458377030502,0
95,5.329,1.1103363037109375,-0.30023193359375,0.2044525146484375,-0.02551913477543241,-0.8747272606020237,0.8964349097002201,0
96,5.379,0.83624267578125,-0.0501708984375,-0.0591278076171875,-0.7624973687578317,-0.8785605656644677,0.995728087526629,0
97,5.428,1.1141815185546875,-0.256805419921875,0.521392822265625,-0.8069506136241336,-0.8449881001573509,0.998064207913805,0
98,5.478,-0.4432220458984375,-2.1096343994140625,-0.1771240234375,-0.7982325073821472,-0.8424980122506635,0.9772336405660791,0
99,5.568,0.423736572265625,-2.10546875,0.3406219482421875,-0.7921342824618243,-0.7987953853586642,0.9951299374009468,0
100,5.618,1.7129058837890625,-0.435516357421875,0.7595367431640625,-0.7541828729208897,-0.7463123905224494,0.9963221049186369,0
101,5.877,-0.979217529296875,2.3481597900390625,-1.0833892822265625,-0.8399480410276277,-0.8558494568846147,0.9776347205684497,0
102,5.927,-0.8019866943359375,0.4814453125,1.595428466796875,-0.9086193253896624,-0.936277138937984,0.9434223576418463,1
103,5.977,-0.224212646484375,0.0971527099609375,0.181976318359375,0.8821542468756801,-0.9611056022884621,-0.7359136013970176,0
104,6.027,1.393096923828125,-0.4229736328125,0.5259552001953125,0.923781353274749,-0.9850048234662834,-0.7928578995971375,0
105,6.076,1.4356536865234375,-0.4162445068359375,0.5359039306640625,0.9566474121528572,-0.9977583269363015,-0.8436006750949671,0
106,6.126,1.0976715087890625,-0.659088134765625,0.4628753662109375,0.9818903739040319,-0.9995511287004242,-0.814257920256058,0
107,6.176,0.6847991943359375,-0.5213165283203125,0.1028900146484375,0.19363048618804107,-0.9989003738236164,0.7900497885018265,0
108,6.226,0.8098602294921875,-0.62164306640625,0.341400146484375,0.48137355824565353,-0.998863655849152,0.7523035878450559,0
109,6.276,0.4949798583984375,-1.1053009033203125,0.212249755859375,0.4670068772488246,-0.9976929800325712,0.8185147290850072,0
110,6.326,-0.54449462890625,-1.8637237548828125,0.4881439208984375,0.5254263946123485,-0.9991076445221527,0.8222684083887423,0
111,6.376,0.1646575927734375,-1.0507965087890625,0.5072021484375,0.45730175466054185,-0.9975764695574458,0.7999291466307472,0
112,6.425,0.5142669677734375,-0.4451751708984375,0.087677001953125,0.1932373479683314,-0.9955364589535378,0.749865323774005,0
113,6.475,0.405120849609375,-0.3285064697265625,0.4259185791015625,0.7918355622921692,-0.9929420669284338,0.6016193391848941,0
114,6.525,0.340606689453125,-0.45086669921875,0.6251068115234375,0.8110481539619461,-0.9897583963512279,0.40421090635616147,0
115,6.575,-0.3322296142578125,-1.68438720703125,0.0804443359375,0.7808438606324997,-0.9873297828268405,0.474843103456647,0
116,6.655,0.34844970703125,-1.9789886474609375,0.57464599609375,0.7721200152650294,-0.9732664048579289,0.38894391126100814,0
117,6.704,1.94915771484375,-0.8478546142578125,0.1343841552734375,0.7763264100853648,-0.9399174797446352,0.2621339205860794,0
118,6.964,-2.959564208984375,0.8949127197265625,0.393035888671875,0.882334330145776,-0.9922747290859473,0.17833724406147192,0
119,7.014,-0.7249603271484375,-0.09869384765625,0.5506744384765625,0.984316291057117,-0.9995775398408042,-0.7916800196979089,0
120,7.063,0.189544677734375,-0.2454071044921875,0.7458648681640625,0.9499043084877925,-0.9971032958876123,0.23465649198439628,1
121,7.113,1.128173828125,-0.3116302490234375,0.0035400390625,0.8977373725974214,-0.9909944374949137,0.11873800253762352,0
122,7.163,1.3136444091796875,-0.397674560546875,0.759735107421875,0.8935039569538712,-0.9811968743640251,0.05011763339389332,0
123,7.213,1.2883453369140625,-0.1985015869140625,0.15240478515625,0.8433719570649906,-0.9675863451396265,0.04078235855621299,0
124,7.263,0.89056396484375,-0.19964599609375,0.214691162109375,0.73230020809958,-0.9595536447479749,0.9498545235011152,0
125,7.313,1.022216796875,-0.105438232421875,0.438751220703125,0.7166148226753299,-0.9555876985858659,0.974723703949607,0
126,7.362,0.88885498046875,-0.5002593994140625,0.2281036376953125,0.4148774137120865,-0.9563404103550368,0.8504508625211886,0
127,7.452,-0.6864776611328125,-1.9681549072265625,1.33062744140625,0.57304593493332,-0.94170235628917,0.8921290803355669,0
128,7.502,0.213714599609375,-0.794219970703125,0.256591796875,0.307427936314993,-0.9513811428118207,0.24805321388790602,0
129,7.552,0.4983367919921875,-0.2733917236328125,0.192596435546875,0.5759126447707045,-0.9598817742517212,0.830358391596189,0
130,7.602,0.197540283203125,-0.5955810546875,0.5502166748046875,0.6785794002506258,-0.9720399749710572,0.2367021347856487,0
131,7.691,-0.4535675048828125,-2.1036376953125,0.915313720703125,0.7066442475812739,-0.9857808958920494,0.17701811273476717,0
132,7.741,1.14306640625,-1.0547637939453125,0.7968292236328125,0.7588469964341064,-0.9931452953223364,0.04043880109002419,0
133,7.791,1.8036041259765625,-0.5089569091796875,0.5496063232421875,0.8531535288078526,-0.9906521776113171,-0.07324991281883793,0
134,8.04,-1.812957763671875,2.2712554931640625,-0.119384765625,0.5863155292333767,-0.9843417027145176,-0.37406778813862146,0
135,8.09,-0.9892120361328125,0.1868743896484375,1.2910919189453125,0.6533202783027036,-0.9556445606517175,-0.5241689817083478,0
136,8.14,0.0161895751953125,0.071990966796875,0.5630950927734375,0.991926199656591,-0.9400848545365916,0.028507329252853555,1
137,8.19,0.7420501708984375,-0.149444580078125,0.6584625244140625,0.9751987438145552,-0.9192802021871952,0.739633654527414,0
138,8.24,0.83154296875,-0.327728271484375,0.262786865234375,0.6255717449364953,-0.8811640098195438,0.8925719405927809,0
139,8.29,0.790863037109375,-0.5515594482421875,0.297332763671875,0.4745194469995554,-0.8422710337122777,0.7838057015516829,0
140,8.339,1.093231201171875,-0.492401123046875,-0.2629241943359375,0.3359177849454899,-0.7879075094334815,0.8081665480103682,0
141,8.389,1.426727294921875,-0.3812255859375,0.028076171875,0.28927350588562495,-0.7990344667470825,0.8411180433552703,0
142,8.439,0.73284912109375,-1.1716766357421875,0.4449005126953125,0.24967115460602254,-0.8070186662030961,0.905011978852413,0
143,8.549,-0.0072174072265625,-2.3665313720703125,0.40362548828125,0.2834735910419592,-0.839810003930163,0.8529537041888825,0
144,8.599,1.2369842529296875,-0.092803955078125,-0.060943603515625,0.34671360839926446,-0.8791036833467989,0.7317087575051062,0
145,8.878,-4.4782867431640625,0.019805908203125,1.568084716796875,0.053915182842064424,-0.7884501722864633,0.5458385679567075,0
146,8.928,-1.42913818359375,0.523834228515625,-0.5391387939453125,0.15970307179611312,-0.6489351181176093,0.468890906218889,0
147,8.977,-1.681121826171875,-0.0507354736328125,1.0785369873046875,-0.006108146340702646,-0.6330544055149276,0.3304838171462504,1
148,9.027,-0.0687103271484375,-0.110443115234375,0.2774658203125,0.9291025959264452,-0.5747450554063307,-0.22422042863925765,0
149,9.077,0.3477630615234375,-0.410552978515625,0.5214080810546875,0.7856772444702558,-0.5240423389603827,0.464154960760369,0
150,9.127,0.90399169921875,-0.42352294921875,0.1125335693359375,0.2567978255340765,-0.47061447071043017,0.8998455462382066,0
151,9.177,1.1056060791015625,-0.2877655029296875,-0.027740478515625,0.142714029169326,-0.3981033941592636,0.9103007656964625,0
152,9.227,1.320465087890625,-0.48797607421875,0.0712432861328125,0.09013608725447626,-0.4329267093243261,0.9230108339332378,0
153,9.277,1.020050048828125,-1.303253173828125,0.663604736328125,0.07407915300313894,-0.4402814388411593,0.9568401578065319,0
154,9.366,0.4962158203125,-2.2132568359375,0.6999664306640625,0.1360373436019623,-0.4465485889694675,0.9186072301498321,0
155,9.416,1.09368896484375,-0.591522216796875,0.3594818115234375,0.24776636235971353,-0.45240937216422417,0.8848906575044087,0
156,9.466,1.5709991455078125,0.2144012451171875,0.3412933349609375,0.3669031927965898,-0.4443788875130976,0.8792691255915486,0
157,9.516,1.1569671630859375,-0.232269287109375,-0.0621490478515625,0.517087799822541,-0.47193869532449184,0.9228056988269812,0
158,9.566,1.3107452392578125,-0.6849822998046875,0.23370361328125,0.7509292655305044,-0.5787437001278456,0.9483674270744032,0
159,9.755,-2.27117919921875,1.4770660400390625,0.5626678466796875,0.6839792708222184,-0.43689377947010144,0.9663307521957367,0
160,9.805,-2.440185546875,0.385101318359375,0.4438323974609375,0.5179954577624313,-0.29796172255810005,0.8752921179030219,0
161,9.855,-0.8081817626953125,-0.02783203125,1.0456695556640625,0.49078176305521387,-0.2913250045173859,0.7790624499224783,1
162,9.905,0.451507568359375,-0.261444091796875,0.452880859375,0.8660475900258163,-0.23692455354266387,0.65352668520733,0
163,9.954,1.1801300048828125,-0.17803955078125,0.7612152099609375,0.8055248075619034,-0.2156823435916507,0.5711287069889568,0
164,10.004,1.2753143310546875,-0.3726959228515625,0.4586029052734375,0.7348594957809456,-0.20060183875657714,0.5376759707419089,0
165,10.054,1.3114471435546875,-0.1131744384765625,0.4671173095703125,0.6409665589020399,-0.14970265650136572,0.5350631431397374,0
166,10.104,0.965545654296875,0.1062469482421875,-0.2148895263671875,-0.896416944228992,-0.10310133407004526,0.9705352230936548,0
167,10.154,0.8479461669921875,-0.225860595703125,0.3451995849609375,0.8367995013542946,-0.1342360588441383,0.8992312094225787,0
168,10.283,0.024505615234375,-2.3399505615234375,0.9579925537109375,0.8662641793488445,-0.133239944791649,0.8470478230777383,0
169,10.333,1.0882568359375,-0.553802490234375,0.082489013671875,0.9288575667772647,-0.10773462405814153,0.7764786607687051,0
170,10.383,1.1821746826171875,-0.184906005859375,0.339874267578125,0.9928881527485953,-0.10856396613998699,0.7517486503644661,0
171,10.433,1.412261962890625,-0.005523681640625,0.171295166015625,0.9948751843440512,-0.10209026463053218,0.7305122491404792,0
172,10.483,1.4406585693359375,0.40985107421875,0.2474365234375,0.9637797414143249,-0.14456475722236878,0.756961130762267,0
173,10.602,-3.013916015625,-1.6974029541015625,0.2708892822265625,0.9846182675780822,-0.3557262313562642,0.9908187338229075,0
174,10.652,-1.1285552978515625,1.24285888671875,0.5168304443359375,0.9481448967978742,-0.2636626843817742,0.9932688535450416,0
175,10.702,-2.0412139892578125,0.0659637451171875,0.08917236328125,0.999434333413295,-0.3172261692150258,0.9792833347227505,0
176,10.752,-1.1728363037109375,-0.1159820556640625,1.4612274169921875,0.9987238050450084,-0.2857314570092974,0.9579858293730863,0
177,10.802,-0.5290069580078125,-0.137847900390625,1.0503082275390625,0.9752908188838915,-0.40868620701027203,0.9123901209189471,1
178,10.852,0.391845703125,-0.5867156982421875,0.3689727783203125,0.5323577433548444,-0.5743912047639552,0.49215070275937556,0
179,10.902,0.4674530029296875,-0.6962127685546875,0.242645263671875,0.32910653897871417,-0.6713836986013202,0.5354656500411035,0
180,10.951,0.55511474609375,-1.0038909912109375,0.666229248046875,0.26880108758351506,-0.6564912228733365,0.4554001318795069,0
181,11.001,0.473388671875,-1.08074951171875,-0.288482666015625,0.0685865659649415,-0.6564808970041556,0.4168751339944737,0
182,11.051,0.45355224609375,-1.1693267822265625,-0.1719207763671875,-0.014191049121776463,-0.6466616978712653,0.40667338915860096,0
183,11.101,0.2592010498046875,-1.18017578125,-0.00421142578125,0.018093573817383034,-0.5658752446797962,0.4091137590874002,0
184,11.151,0.094757080078125,-1.1746063232421875,-0.1873016357421875,0.05399328448024546,-0.49217520195599784,0.4178670038489462,0
185,11.201,-0.0630340576171875,-1.1048583984375,-0.169158935546875,0.06148764714449675,-0.45342420179239434,0.4169339440965591,0
186,11.25,0.02685546875,-0.9556732177734375,-0.101776123046875,-0.10589795163974491,-0.44457642717577117,0.027932184866389292,0
187,11.3,0.1697235107421875,-0.7729949951171875,0.0672149658203125,0.08662707053340277,-0.43416744485569514,0.21368823432637388,0
188,11.35,0.265533447265625,-0.74420166015625,0.062469482421875,0.08364742518430773,-0.4481947747285408,0.33500722579520553,0
189,11.4,-0.4175567626953125,-1.276519775390625,-0.6666107177734375,0.07507420598064019,-0.40600848860744926,0.34833890827028113,0
190,11.45,-0.1674957275390625,-1.2139892578125,-0.019866943359375,0.13673847785758833,-0.3619844445191427,0.34761714381672665,0
191,11.5,0.41766357421875,-0.6666259765625,0.0715179443359375,0.10667134107853997,-0.436587098186537,0.5287525165619528,0
192,11.55,0.5043487548828125,-0.443603515625,0.1474609375,0.3154442701132354,-0.4440920773217044,0.7334118372790263,0
193,11.599,-0.250823974609375,-1.0122528076171875,-0.00787353515625,-0.007777994716318681,-0.39918732386667766,-0.24050736237544953,0
194,11.689,-0.223724365234375,-2.0231475830078125,-0.024505615234375,0.13720840307264662,-0.3927952439948193,-0.2843076936593375,0
195,12.008,-4.152618408203125,-0.753509521484375,1.2132568359375,-0.24453131396446606,-0.38307733544858863,-0.5499869200557832,0
196,12.058,-0.3975372314453125,1.4143524169921875,-0.8534088134765625,-0.050329037605636874,-0.29503948595791935,-0.5461821408067249,0
197,12.108,-1.636474609375,-0.1261749267578125,1.875091552734375,-0.1992012431093287,-0.324588046439269,-0.6637530822920629,0
198,12.158,-0.6623077392578125,0.1919403076171875,0.8665924072265625,-0.3453984227388995,-0.2918793693544255,-0.7774301265502538,1
199,12.208,0.1418304443359375,-0.374603271484375,0.6088104248046875,0.8516890976324458,-0.31158046966659664,0.1946184106734399,0
200,12.257,0.804840087890625,-0.6983795166015625,0.9029541015625,0.6804543188239134,-0.339870583795563,0.052977376708700855,0
201,12.307,0.9619293212890625,-0.37188720703125,0.4599609375,0.5292051517426809,-0.3118871993586018,-0.09468671332466298,0
202,12.357,1.154144287109375,-0.1128997802734375,0.6495513916015625,0.351971626935584,-0.22343111478085476,-0.16040489114345557,0
203,12.407,1.2803955078125,-0.0587005615234375,0.1511993408203125,0.0942627214713395,-0.20866275867539744,-0.13107168379604234,0
204,12.457,0.8983917236328125,-1.14654541015625,-0.599212646484375,0.09789949953817777,-0.08462656280839687,-0.015647987096089864,0
205,12.507,-0.432220458984375,-2.1269989013671875,-1.061279296875,0.1015349707063094,0.04074034019413532,0.09998531375197033,0
206,12.556,0.790069580078125,-0.98175048828125,-0.0399932861328125,0.19029966207714014,0.006189873471517184,0.09019779716061274,0
207,12.606,0.5442962646484375,-0.5841522216796875,0.2851409912109375,0.43865809736847294,0.03897737054375898,0.6419955779134132,0
208,12.656,0.412933349609375,-0.5168304443359375,0.2154083251953125,0.3847101986467458,0.03211252724767695,0.5935325405828021,0
209,12.706,0.0214385986328125,-1.382720947265625,-0.1291046142578125,0.4192585278986072,0.03550129748695344,0.6429156745236277,0
210,12.786,0.3494110107421875,-2.275238037109375,-0.051849365234375,0.4906289886476829,-0.10222585423476965,0.620446094141453,0
211,12.836,1.6227874755859375,-0.168365478515625,1.3086700439453125,0.739708675479447,-0.15862562971554772,0.570451387115612,0
212,13.009,-8.021026611328125,0.41094970703125,-6.2067108154296875,0.882669670270693,-0.2117491518025097,0.7902229800191547,0
213,13.115,-0.6575469970703125,3.146942138671875,-0.8693389892578125,0.6492101409592218,-0.2502327716481182,0.5149713372805581,0
214,13.165,-0.306976318359375,-0.5354461669921875,1.5540313720703125,0.6867669801480077,-0.1462611453137474,0.4013411492107932,1
215,13.214,0.378326416015625,-0.4721221923828125,0.3601226806640625,0.6064805665949101,-0.14545621119060184,0.5373398686334528,0
216,13.264,1.2696533203125,-0.333740234375,0.6607513427734375,0.5904078844445129,-0.0707910724270493,0.39928657089147956,0
217,13.314,1.479827880859375,-0.4160614013671875,0.476409912109375,0.4807565370081987,0.05324611690299625,0.3542959836604062,0
218,13.364,1.0670623779296875,-0.39276123046875,0.2171783447265625,0.431207714093687,0.08241357951172008,0.35997364118952363,0
219,13.414,0.78277587890625,-0.243743896484375,0.4756011962890625,0.8899345543096606,0.12913322922441756,0.8258776191001302,0
220,13.464,0.8970184326171875,-0.268646240234375,0.1121826171875,0.3853372579536457,0.14551119651785385,0.9511594769131139,0
221,13.513,0.5866241455078125,-1.077301025390625,0.435943603515625,0.42860823161975586,0.1615588704521118,0.9734698837549066,0
222,13.563,0.121307373046875,-1.6809844970703125,0.5385284423828125,0.4290867769017668,0.15544858022650096,0.9784011234921466,0
223,13.613,0.1978607177734375,-1.1798553466796875,0.564727783203125,0.42551833194874755,0.13757625865533454,0.9687553644605418,0
224,13.663,0.7307891845703125,-0.321502685546875,0.398834228515625,0.7785444861319263,0.1161082558161337,0.8188477508734877,0
225,13.713,0.935821533203125,-0.024322509765625,0.2550506591796875,0.9954836874858952,0.08957874963317071,0.9645059922924039,0
226,13.763,-0.0963897705078125,-1.06329345703125,0.167266845703125,0.1553991030752643,0.1149635058766465,-0.08919389972333093,0
227,13.813,0.1141357421875,-1.130126953125,0.625762939453125,0.20499233740883435,0.09653511538127901,-0.08167761805203769,0
228,13.862,0.5244293212890625,-0.6048583984375,0.34228515625,0.49250284215403994,0.05398174280995804,0.6023393173378552,0
229,13.912,0.076507568359375,-1.0166473388671875,0.818817138671875,0.5091228359752995,-0.008299851978990786,0.6350319559541553,0
230,13.962,-0.570587158203125,-1.5709991455078125,0.91754150390625,0.44375799034159635,-0.08040440597217886,0.6300449204830267,0
231,14.012,0.453857421875,-1.2657928466796875,0.5732879638671875,0.4331405688067364,-0.14404403701955631,0.5363611973291253,0
232,14.181,2.0967559814453125,0.7894134521484375,1.07843017578125,0.6038035369950485,-0.23821259411916806,0.6368332119469962,0
233,14.371,-0.6608734130859375,2.3956451416015625,-0.843109130859375,0.197395757990502,-0.2562035651703586,0.3767603205389897,0
234,14.421,0.6555328369140625,-0.6487274169921875,0.907470703125,0.22303269528845504,-0.18684775859395225,0.2684697990459275,0
235,14.471,0.93072509765625,-0.019622802734375,0.97552490234375,0.04446289067231668,-0.1606653037647641,0.15528676647078973,1
236,14.52,1.912261962890625,-0.3462677001953125,-0.3486328125,-0.18331531490671635,-0.09932415526448539,0.091480642940476,0
237,14.74,2.0964508056640625,0.6640625,0.70147705078125,0.0020044747464068573,-0.16616879297263484,0.1833306045059079,0
238,14.879,-2.0008544921875,0.7468414306640625,2.638519287109375,0.2133825590471912,0.022150032091163997,0.1914992125135182,0
239,14.969,-2.1896209716796875,-0.027557373046875,2.5369415283203125,0.13301542021944077,0.08406724673514443,0.018036550367171073,1
240,15.019,-0.1947021484375,-0.0130615234375,-0.458740234375,-0.9995949020475278,0.1356018664477426,-0.3905604009170247,0
241,15.069,0.8286895751953125,-0.22406005859375,0.778900146484375,-0.9983581219523024,0.13727525969517815,-0.5043488489904238,0
242,15.119,1.3074493408203125,-0.454315185546875,0.51043701171875,-0.9827313273807594,0.142382958965951,-0.545354521235528,0
243,15.168,1.33282470703125,-0.333099365234375,0.766571044921875,-0.9553225392254009,0.14390248697478317,-0.5569874303229678,0
244,15.218,1.1198883056640625,-0.3864593505859375,0.267669677734375,-0.9202881450879773,0.17485525321912126,-0.5300002174750412,0
245,15.268,0.7972564697265625,-0.653472900390625,0.57110595703125,-0.8967875144437297,0.16349841213558786,-0.4551247421497362,0
246,15.318,0.08258056640625,-1.172821044921875,0.393585205078125,-0.8707329851687926,0.19924876397863744,-0.3771102926143202,0
247,15.368,-0.121917724609375,-1.56756591796875,0.1959381103515625,-0.8814596614697481,0.24554288022929638,-0.31493805157126814,0
248,15.418,-0.05078125,-1.377197265625,0.5063934326171875,-0.878742361340533,0.2738543377513883,-0.2807979898164271,0
249,15.467,0.2180633544921875,-0.759033203125,0.152740478515625,0.19727573004065194,0.24747617359171745,0.2710979860952826,0
250,15.517,0.653564453125,-0.33526611328125,0.2570037841796875,0.608381494126761,0.22400954802090334,0.8398373806269033,0
251,15.567,-0.101959228515625,-0.7639617919921875,0.2072601318359375,0.2618318786163688,0.1443449150765199,-0.12774979470470796,0
252,15.617,-1.638397216796875,-1.858489990234375,-0.470123291015625,0.08966278906829267,0.0275885748329214,-0.04923983131938984,0
253,15.667,-0.09527587890625,-0.9846954345703125,-0.3134765625,-0.30334809798694473,-0.21758192446217506,-0.09180812781538221,0
254,15.717,0.318267822265625,-0.401580810546875,-1.1623077392578125,-0.39062535924562747,-0.20723654309110043,-0.19258464385375582,0
255,15.767,0.7904510498046875,-0.184326171875,0.0290069580078125,0.1554544422240058,-0.006815130243444323,0.9732505284775339,0
256,15.816,-0.256744384765625,-1.0440521240234375,0.6462860107421875,0.35819232507001114,0.1464534656438245,0.9890914657486394,0
257,15.866,-0.9534759521484375,-1.7182769775390625,-0.5296173095703125,0.2385521736393878,0.019145654192990493,0.9941438832630788,0
258,15.916,-0.1953125,-1.2386474609375,-0.1340179443359375,0.09506508572507787,-0.17330540024614483,0.9861664982278374,0
259,15.966,0.5364837646484375,-0.464263916015625,-0.2003326416015625,-0.3961943760368533,-0.3043252772577433,0.7277148075969061,0
260,16.016,0.28338623046875,-0.5017242431640625,0.0440216064453125,0.08740484591764476,-0.2401436333046967,0.49036915850168805,0
261,16.066,-0.7147979736328125,-1.0969390869140625,-0.7390594482421875,0.15572008184007524,-0.13857857619889188,0.5413252664347973,0
262,16.115,-0.6308441162109375,-1.4938201904296875,-0.6529693603515625,0.2663210204242069,-0.14361997377949487,0.524393850489954,0
263,16.165,-0.1544342041015625,-1.137237548828125,-0.13433837890625,0.2836452591536425,-0.2536587140124987,0.494775264515826,0
264,16.215,0.17144775390625,-0.7170867919921875,0.4092864990234375,0.49570301985857124,-0.2954201999915771,0.20331029223278335,0
265,16.265,-0.16363525390625,-0.7580718994140625,0.31903076171875,0.38789443098787163,-0.25980657583410316,-0.19513184028345132,0
266,16.315,-0.2056732177734375,-0.8530426025390625,-0.0341339111328125,-0.039982314051377844,-0.266475933722126,-0.2342118130942395,0
267,16.365,0.0768585205078125,-0.669647216796875,-0.619903564453125,-0.679325333844958,-0.26433082678707004,0.08392873793698395,0
268,16.415,0.3652496337890625,-0.4630889892578125,-0.150054931640625,-0.3082517270135454,-0.222618424705889,0.6001624861296375,0
269,16.464,0.0878753662109375,-0.637725830078125,0.8419952392578125,0.7971602024347852,-0.13922677204691533,0.08290969031982767,0
270,16.514,-0.286376953125,-0.677490234375,1.2038421630859375,0.8352139989151849,0.02288834401949175,0.20063833338327342,0
271,16.564,-1.397613525390625,-1.3185272216796875,1.1767120361328125,0.8190284396254109,0.129024410160923,0.28941856428676993,0
272,16.614,-1.4762420654296875,-1.757568359375,0.6998291015625,0.7546882230116121,0.196162388992313,0.24646774416428205,0
273,16.664,-0.4769287109375,-0.9600067138671875,0.100494384765625,0.10411203812675258,0.21547995603217424,-0.442975123424825,0
274,16.714,-0.1575927734375,-0.8098907470703125,-0.5849151611328125,-0.5854866502150595,0.2509977100280684,-0.15581994719116085,0
275,16.763,0.3973388671875,-0.3653717041015625,-0.014190673828125,-0.03880974544891713,0.24753858846287338,0.7358429579045878,0
276,16.813,0.57452392578125,-0.0174102783203125,0.4058685302734375,0.9990812193900411,0.1129939482390476,0.8165019314755889,0
277,16.863,0.53375244140625,-0.4699859619140625,1.023773193359375,0.9979054151356584,-0.03542171963062478,0.8528785155219057,0
278,16.913,-1.3949432373046875,-1.6656494140625,-0.0523681640625,0.9997441442698356,0.12922947052560885,0.8831556386428275,0
279,16.963,-1.127685546875,-1.884063720703125,0.9444580078125,0.9980287442451607,0.17072684263116908,0.8450231913627078,0
280,17.013,0.3843536376953125,-0.3403472900390625,-0.016845703125,-0.04943511232774821,0.17171255138134026,0.748263012750767,0
281,17.063,1.0672454833984375,0.2438201904296875,0.4025726318359375,0.011009289440511681,0.16790472936744302,0.7081474129394568,0
282,17.112,-0.605072021484375,-1.0081787109375,0.744384765625,0.08620217015750946,0.14501231111100749,0.7314122416293077,0
283,17.162,-0.87109375,-1.8421630859375,0.9516754150390625,0.15417763658212003,0.10622644290021033,0.7067529678161257,0
284,17.212,1.1260528564453125,-1.2700347900390625,1.1114349365234375,0.23277643947603302,-0.0027785370936524475,0.6469694055553087,0
285,17.431,-4.12042236328125,-1.451446533203125,-4.204864501953125,-0.23845784597004094,-0.2127843757661077,0.9367405251271963,0
286,17.481,-2.223907470703125,0.86956787109375,0.6680145263671875,0.377403368713364,-0.009016783656703133,0.9560842001793566,0
287,17.531,-1.7135162353515625,0.3217926025390625,-0.4290924072265625,-0.0044199228417716955,-0.16568747101920822,0.8945535173826281,0
288,17.581,-1.45867919921875,0.3249359130859375,1.8213958740234375,0.13422700952993094,-0.0036272551727250264,0.8300214076199514,1
289,17.631,-0.223968505859375,-0.277618408203125,0.06463623046875,0.22675914426669805,-0.006815453498002325,-0.6178313080874546,0
290,17.681,0.6575927734375,-0.9858245849609375,0.748992919921875,0.18516950484869293,0.05504859623843855,-0.7028501987467298,0
291,17.73,0.916900634765625,-0.7882843017578125,0.6502685546875,0.072342937033945,0.0766387724232578,-0.7462682398036057,0
292,17.78,1.2578582763671875,-0.51446533203125,0.8206024169921875,0.001620044181890007,0.09117198623285015,-0.7915857226080971,0
293,17.83,1.1011505126953125,-0.041351318359375,0.0881500244140625,-0.10896983904806495,0.17990111150677485,-0.7985232233593467,0
294,17.88,1.2153167724609375,0.1143798828125,0.19464111328125,-0.19428807161067876,0.23110422725826416,-0.7856232859607267,0
295,17.93,0.6402435302734375,-0.7230224609375,0.3146209716796875,0.39900701139203404,0.27346408484523865,0.6303430720226962,0
296,18.01,-0.276580810546875,-2.072113037109375,0.3810272216796875,0.4403736164630005,0.2688186623958286,0.6511314992733387,0
297,18.059,0.776885986328125,-0.8075103759765625,0.4943084716796875,0.3977645708967225,0.21555300244129197,0.6217351095673926,0
298,18.109,1.2571563720703125,-0.6615447998046875,0.285430908203125,0.38931589174282105,0.14765035863566123,0.5943859072626467,0
299,18.179,0.0325927734375,-2.1124725341796875,1.10791015625,0.5574326042162498,0.14406174126269689,0.6146672737835274,0
300,18.408,-4.360198974609375,-1.8192901611328125,-4.0019989013671875,0.4957681985456841,-0.01717633376442937,0.8252990713681428,0
301,18.478,-2.6887359619140625,1.9063568115234375,0.54638671875,0.5052354912701263,0.27747999389097716,0.815397555189813,0
302,18.528,-0.983642578125,0.046478271484375,1.1743927001953125,0.33283006161516643,0.35128043662304786,0.652262206390439,1
303,18.578,0.0810546875,0.1102447509765625,0.7360687255859375,0.9889689608167427,0.40502940981650287,0.10826353820810486,0
304,18.628,1.23175048828125,-0.2799530029296875,0.0167999267578125,0.9998520382094647,0.4497093425443822,-0.05404861307992397,0
305,18.678,1.70184326171875,-0.00360107421875,0.9327850341796875,0.9972174421265718,0.49657185009167804,-0.13022581310294318,0
306,18.727,1.213714599609375,0.0249786376953125,-0.220123291015625,0.9688798187722735,0.5333232031473071,-0.10828670263886764,0
307,18.777,1.4611663818359375,-0.1685028076171875,0.529022216796875,0.9504776276167938,0.5727591320599782,-0.05681961304054879,0
308,18.827,0.7025909423828125,-0.946533203125,-0.0509796142578125,0.9307440873964344,0.6121993995859328,0.04553296472971046,0
309,18.877,-0.1288909912109375,-1.7682037353515625,0.8632965087890625,0.9499101391670839,0.6027111699259262,0.17215510821194752,0
310,18.927,0.1499786376953125,-1.3676300048828125,1.030303955078125,0.9813907934784871,0.6483253226845834,0.21585000245924946,0
311,18.977,0.7932281494140625,-0.511566162109375,-0.137298583984375,-0.25921508520178665,0.6469004872130945,0.8316379213198125,0
312,19.026,0.6180877685546875,-0.3006744384765625,0.11785888671875,0.3649462046752578,0.6635291909768098,0.8863094239425743,0
313,19.076,0.0185089111328125,-0.9541778564453125,0.365936279296875,0.358079424794112,0.6530597152716276,0.018108544762140168,0
314,19.126,-0.2122802734375,-1.2889556884765625,0.64837646484375,0.3992255872652599,0.6430265447622973,0.04560374183801912,0
315,19.176,0.3949127197265625,-0.7287445068359375,0.66351318359375,0.6732382317789103,0.6147412175910302,0.37195149459169136,0
316,19.226,-0.13079833984375,-2.1179351806640625,0.119140625,0.6201730563869852,0.5813593710593168,0.3428882202557991,0
317,19.276,0.2279205322265625,-1.82232666015625,0.3877410888671875,0.5813171422311817,0.5123848952146581,0.2944781584908824,0
318,19.415,2.3445281982421875,1.1811065673828125,1.368438720703125,0.7844705025496996,0.5168789030979024,0.49018408273540787,0
319,19.605,-0.6303558349609375,2.406890869140625,-1.5430755615234375,0.4485373593101393,0.4711589265641919,0.14858977824298758,0
320,19.654,-1.6916656494140625,-0.32757568359375,1.497894287109375,0.5712349965882957,0.5638091469337899,0.06217472181405118,0
321,19.704,0.212005615234375,0.180023193359375,0.585845947265625,0.9558876818366963,0.5744983791253907,0.3269099301751759,1
322,19.754,1.084808349609375,-0.5763702392578125,0.470855712890625,0.9844934291169611,0.6247614981110775,0.257613138200306,0
323,19.804,1.314971923828125,-0.549560546875,0.70269775390625,0.9993480028018913,0.6202690113069944,0.20137280702858257,0
324,19.854,1.78411865234375,-0.3913421630859375,0.163665771484375,0.9951416986097639,0.6777391309615237,0.18908137322008198,0
325,19.904,1.0582427978515625,-0.7020721435546875,0.637359619140625,0.9872129993895259,0.6784932502265549,0.25911770256000516,0
326,19.954,0.8957977294921875,-0.862274169921875,0.657623291015625,0.9443776582169321,0.6261347960147086,0.2993028271997985,0
327,20.003,0.3557281494140625,-1.0308380126953125,-0.0511016845703125,-0.04951215303499702,0.6249707992553563,0.32585172268500145,0
328,20.053,-0.0523834228515625,-1.1157379150390625,-0.49237060546875,-0.1590865180846097,0.6289465737815512,0.3977354488897963,0
329,20.103,0.08160400390625,-1.050323486328125,-0.2828826904296875,-0.26006201217266417,0.6720933173152196,0.07481062900698732,0
330,20.153,-0.0063934326171875,-1.038116455078125,-0.273193359375,-0.25449749735998217,0.6886406752947097,-0.005955795360543803,0
331,20.203,-0.0073394775390625,-1.242706298828125,-0.1217498779296875,-0.22150822655709548,0.712980477711845,0.017430382028917852,0
332,20.253,-0.048248291015625,-1.0837554931640625,-0.0859375,-0.07904789096634858,0.7229890194548698,-0.044336584428341645,0
333,20.302,0.3318634033203125,-0.7032470703125,0.2873382568359375,0.37823394042250086,0.6783642733350375,0.4003142312969211,0
334,20.352,0.1694793701171875,-0.7747955322265625,0.020904541015625,0.02697090454360176,0.6235348530633655,0.2136140843568966,0
335,20.402,-0.38958740234375,-1.22955322265625,-0.532257080078125,0.0646951131523653,0.6732579492696199,0.23316602602714245,0
336,20.452,-0.1701812744140625,-1.2314910888671875,-0.0193328857421875,0.14105965047482266,0.6889275339806868,0.21102810476667458,0
337,20.502,0.2678375244140625,-0.7669219970703125,0.0302276611328125,0.03938367849557384,0.6513289084889984,0.32948058826011223,0
338,20.552,0.5471038818359375,-0.4369659423828125,0.10546875,0.23462836625485786,0.634871367969711,0.7726519228186491,0
339,20.602,0.197113037109375,-0.6641998291015625,0.368682861328125,0.4853239822609195,0.6712969920607753,0.2511570856489844,0
340,20.711,0.340545654296875,-2.2366180419921875,0.2501068115234375,0.6056248092618696,0.6762574688294736,0.15826037611119168,0
341,20.761,1.9541168212890625,-0.429229736328125,0.3182220458984375,0.7253327181734858,0.6710668914147143,0.014121816650260181,0
342,20.861,2.5555877685546875,1.114715576171875,1.1365814208984375,0.8743198439495516,0.6867049864406467,0.1901660516831582,0
343,20.97,-2.9923553466796875,-1.6922149658203125,-0.1268310546875,0.7506989472658679,0.5045608226914962,0.6501685430369585,0
344,21.02,-1.3930206298828125,0.70904541015625,1.1958770751953125,0.9162525502345307,0.590915394916688,0.6205005338694002,0
345,21.07,-1.3939361572265625,0.1959228515625,0.02508544921875,0.7849900023602825,0.5772255522716998,0.47784145072369955,0
346,21.12,-1.0914459228515625,-0.14410400390625,0.7607421875,0.7949170837217004,0.6110756028935556,0.36427046311536854,0
347,21.17,-0.022216796875,-0.2615203857421875,0.9918212890625,0.9669509049185222,0.5806346724712361,-0.021654621312950473,0
348,21.22,0.495849609375,-0.73089599609375,0.3026580810546875,0.3825874525041147,0.5471405690607338,0.5310947472202118,0
349,21.269,0.82232666015625,-0.73931884765625,0.61480712890625,0.17716979391986942,0.497900476997204,0.45909940504621466,0
350,21.319,0.8624420166015625,-0.858489990234375,-0.0207061767578125,-0.09095196262231722,0.4404538955161837,0.39680742921195744,0
351,21.369,0.87353515625,-1.1081390380859375,-0.10284423828125,-0.2865338255472083,0.404629491860792,0.36701890017483696,0
352,21.419,0.8367919921875,-1.1877593994140625,-0.258270263671875,-0.3994451180414306,0.4137211570036588,0.35313162273990584,0
353,21.469,-0.2511138916015625,-1.3883819580078125,-0.7344970703125,-0.465132204360509,0.4506848513688646,0.4339182286040391,0
354,21.519,0.03094482421875,-1.07196044921875,-0.4168548583984375,-0.42525692262177855,0.5380531386464097,0.45668903013464995,0
355,21.569,-0.2376708984375,-1.0471649169921875,-0.252655029296875,-0.38882235379471414,0.5675254489983763,0.48282398370361945,0
356,21.618,0.058746337890625,-0.8816070556640625,-0.206451416015625,-0.2280078614071635,0.504916822008621,0.06474416016889409,0
357,21.668,0.1114654541015625,-0.9263153076171875,-0.1779327392578125,-0.18863799058824146,0.4361612323685238,0.11735516250312522,0
358,21.718,0.0164642333984375,-0.956207275390625,-0.3311767578125,-0.3272711079564898,0.39616730138263423,0.016267913561498384,0
359,21.768,0.199462890625,-0.7696990966796875,-0.4416961669921875,-0.49772501643679296,0.315502264024627,0.2192936035777091,0
360,21.818,0.3787078857421875,-0.5400390625,-0.416168212890625,-0.6104049038067593,0.21533234959679498,0.4855796672528029,0
361,21.868,0.2474212646484375,-0.475341796875,-0.5898284912109375,-0.7786235054443132,0.11498495169732527,0.3104759874071907,0
362,21.917,0.0926666259765625,-0.4183349609375,-0.867828369140625,-0.9008020933455072,0.0881531144808095,0.09574565509381892,0
363,21.967,-0.16046142578125,-0.593902587890625,-0.973663330078125,-0.9177629742108978,0.12782707079324415,0.14446668447854,0
364,22.017,-0.0167083740234375,-0.520233154296875,-1.110076904296875,-0.9290503988896536,0.12651887574160467,0.1636774333978235,0
365,22.067,-0.0355224609375,-0.5400390625,-1.0216522216796875,-0.9331183895839023,0.11750286663698734,0.20358942298691818,0
366,22.117,-0.0874786376953125,-0.6529998779296875,-0.814483642578125,-0.7802081280361904,0.11921306651260861,-0.08350464568629253,0
367,22.167,-0.2014312744140625,-0.7691497802734375,-0.6344451904296875,-0.6363212590523084,0.11504114067751132,-0.1980261204220022,0
368,22.217,-0.002532958984375,-0.5260772705078125,-0.8209991455078125,-0.8419742864350699,0.06871436606925732,-0.002597663042121609,0
369,22.266,0.0090484619140625,-0.485076904296875,-0.8069305419921875,-0.857062193094465,0.05829008528168486,0.009610166040775978,0
370,22.316,0.0297393798828125,-0.5323486328125,-0.716339111328125,-0.8026306576528932,0.06455571901390823,0.03330335710892074,0
371,22.366,-0.06005859375,-0.595947265625,-0.7109832763671875,-0.7663832555058664,0.07553739737403012,-0.0646031369146977,0
372,22.416,-0.0859375,-0.5892791748046875,-0.704010009765625,-0.7668244457289181,0.08738071389237574,-0.09319776324536345,0
373,22.466,-0.03704833984375,-0.5598602294921875,-0.8450775146484375,-0.8336516382996149,0.08120483428588618,-0.03652304347130361,0
374,22.516,-0.119110107421875,-0.6688690185546875,-0.8332672119140625,-0.7798381671358844,0.08347602860919948,-0.11078657253839025,0
375,22.565,-0.0327606201171875,-0.653045654296875,-0.730926513671875,-0.7457183050015099,0.067406477591292,-0.033404944457034735,0
376,22.615,-0.1060333251953125,-0.6736297607421875,-0.764801025390625,-0.7504191085158683,0.05799809843457818,-0.10348085050501933,0
377,22.665,-0.301849365234375,-0.7854461669921875,-0.74713134765625,-0.7370841189407455,0.07129049724905501,-0.07227411894079125,0
378,22.715,-0.0225372314453125,-0.5786285400390625,-0.802642822265625,-0.8111864161334422,0.06411663633798072,-0.022771219081229633,0
379,22.765,-0.1297454833984375,-0.636383056640625,-0.803741455078125,-0.7840041726807756,0.06533164058492835,-0.12555780324247207,0
380,22.815,-0.1667327880859375,-0.6577911376953125,-0.701751708984375,-0.7295896425529379,0.08796334608508023,-0.17079974447352678,0
381,22.865,-0.13397216796875,-0.62060546875,-0.70086669921875,-0.7486741607131687,0.10765166654561321,-0.14166729917022947,0
382,22.914,-0.3263702392578125,-0.767181396484375,-0.6331787109375,-0.6365349129872303,0.12538758119026935,-0.3117491308478434,0
383,22.964,-0.221923828125,-0.6998291015625,-0.6591644287109375,-0.6856413994690708,0.12576177896802962,-0.2249230771998228,0
384,23.014,-0.1825714111328125,-0.6212310791015625,-0.804412841796875,-0.791456658610026,0.12494573643065764,-0.17680105079100156,0
385,23.064,-0.21820068359375,-0.6874542236328125,-0.673828125,-0.6999937506049441,0.1327502857389869,-0.2210655556389477,0
