index,time,acc x,acc y,acc z,sin ori x,sin ori y,sin ori z,user input
0,0,-0.12969970703125,-0.5925750732421875,-0.872528076171875,-0.8272543706836631,0,-0.12205051708154524,0
1,0.05,-0.1904754638671875,-0.6117095947265625,-0.84197998046875,-0.8090282658507475,-0.026515344189097494,-0.18003063937843602,0
2,0.1,-0.235137939453125,-0.6856231689453125,-0.869720458984375,-0.7929275256251875,-0.059958389330037734,-0.18156697342221748,0
3,0.15,-0.2131195068359375,-0.6644439697265625,-0.7241058349609375,-0.7368092391324248,-0.07061651697982785,-0.21193230516948114,0
4,0.199,-0.221527099609375,-0.709747314453125,-0.8302764892578125,-0.7182366713291478,-0.09924440709795894,-0.2188968986916488,0
5,0.249,-0.3399505615234375,-0.7259979248046875,-0.758575439453125,-0.6997289715884,-0.11233685403397123,-0.25143260656890065,0
6,0.299,-0.0550079345703125,-0.6762237548828125,-0.57623291015625,-0.6485906710294679,-0.15277155932844502,-0.061796963306254026,0
7,0.349,-0.220428466796875,-0.633087158203125,-0.659515380859375,-0.7214133366190173,-0.22860141037982318,-0.23439909710074852,0
8,0.399,-0.229827880859375,-0.655364990234375,-0.5881805419921875,-0.667930167493451,-0.3131192112453216,-0.2525305942105705,0
9,0.449,-0.2640533447265625,-0.5833740234375,-0.65142822265625,-0.7449473405121552,-0.33158350358304367,-0.2890695886782773,0
10,0.498,-0.3962249755859375,-0.7449951171875,-0.6157073974609375,-0.6370515666862514,-0.31630225233349146,-0.37932202977139823,0
11,0.548,-0.446868896484375,-0.787872314453125,-0.7104644775390625,-0.6625325870469454,-0.2172769898735492,-0.37286989035545737,0
12,0.598,-0.21490478515625,-0.7699737548828125,-0.5679473876953125,-0.5936042507851476,-0.12929975308637184,-0.21915282728787167,0
13,0.648,-0.1024932861328125,-0.6799468994140625,-0.7633056640625,-0.7467031120441462,-0.0886145855199515,-0.09976376756675599,0
14,0.698,-0.1267242431640625,-0.697509765625,-0.6511077880859375,-0.682373515963584,-0.09927888416334794,-0.13165345058925268,0
15,0.748,-0.227935791015625,-0.7361907958984375,-0.7949676513671875,-0.6766604980699363,-0.11028623404469967,-0.12561783633991597,0
16,0.797,-0.229705810546875,-0.7581329345703125,-0.749176025390625,-0.702892517965905,-0.09549605141731521,-0.2106776629072176,0
17,0.847,-0.1372222900390625,-0.7298431396484375,-0.4918060302734375,-0.5588184701943728,-0.10488422454271039,-0.15405849233044203,0
18,0.897,-0.0886383056640625,-0.6902313232421875,-0.5047760009765625,-0.5903033323651806,-0.13993466604411536,-0.10310440891771232,0
19,0.947,-0.3968963623046875,-0.797119140625,-1.0498046875,-0.5463370021151241,-0.18369630974305254,-0.09912619634126704,0
20,0.997,-0.26861572265625,-0.798187255859375,-0.7850189208984375,-0.43418703510425033,-0.2075406729874189,-0.11184309870060363,0
21,1.047,0.150604248046875,-0.5310821533203125,-0.139678955078125,-0.25435789144290566,-0.2457282024208345,0.26448671178237654,0
22,1.096,-0.0933685302734375,-0.78814697265625,0.306671142578125,0.362620392627423,-0.3142070066913802,-0.10973598823826264,0
23,1.146,-1.217681884765625,-1.6862640380859375,-0.7743072509765625,0.39627478040612923,-0.3212944114373977,-0.12755928912400313,0
24,1.196,-0.851104736328125,-1.8243255615234375,-0.979461669921875,0.5742492188705263,-0.34831768284267556,-0.22540248560193235,0
25,1.246,0.252960205078125,-1.43072509765625,0.489959716796875,0.7343285719584383,-0.39672910026453795,-0.3235218183840091,0
26,1.296,1.253814697265625,-0.8328399658203125,0.0785369873046875,0.9311569975701306,-0.4911803833049,-0.4348416232344172,0
27,1.495,-2.7789459228515625,-1.7698974609375,-1.0413970947265625,0.7303609095090073,-0.3066709297250845,-0.042321111758740815,0
28,1.545,-2.2886199951171875,0.1444091796875,1.321990966796875,0.5668028681165191,-0.34460273912517,-0.23250458678633268,1
29,1.595,-0.7255859375,0.2590789794921875,-0.0778350830078125,-0.2877256263608478,-0.4410904937645239,-0.9369967095446041,0
30,1.645,-0.0702667236328125,-0.4091644287109375,1.04083251953125,-0.15191529499770542,-0.45989146684878796,-0.9666722854168732,0
31,1.694,0.627349853515625,-0.260040283203125,0.767608642578125,0.9471281504435785,-0.4377040672824974,0.6121107429834008,0
32,1.744,0.8842010498046875,-0.410064697265625,1.0581207275390625,0.8992911329189972,-0.43754461071426787,0.6083904637790521,0
33,1.794,0.435638427734375,-0.4941558837890625,0.722991943359375,0.8255853866676792,-0.43738514038550613,0.4453905180701288,0
34,1.844,0.5370025634765625,-0.214263916015625,0.598297119140625,0.941449302309914,-0.4278821352337339,0.6454282109332894,0
35,1.894,0.4887847900390625,-0.4773406982421875,0.222991943359375,0.4232485115443045,-0.3879300882264503,0.680121766236558,0
36,1.944,0.08258056640625,-1.0926513671875,-0.76025390625,0.17959408797287818,-0.3920435841107806,0.6910204349502815,0
37,1.993,0.066925048828125,-1.69561767578125,-1.8973236083984375,0.2448989532443394,-0.42239626864547564,0.6906446534212877,0
38,2.043,0.324920654296875,-1.3601837158203125,-0.1331634521484375,0.25996595668876143,-0.3823015798197895,0.6692827128678299,0
39,2.093,0.2958526611328125,-0.944976806640625,0.0067901611328125,0.007185346558268892,-0.3519001462258181,0.29877156647161124,0
40,2.143,0.233978271484375,-0.7337188720703125,0.268096923828125,0.34320123786144274,-0.34666440977782403,0.2869300787293519,0
41,2.193,0.1955108642578125,-0.6793670654296875,0.5693359375,0.6423103418007859,-0.399411730068003,0.21539303851405028,0
42,2.243,-0.36444091796875,-1.164306640625,-0.228546142578125,0.6469223253932824,-0.514308805949441,0.24901616280000136,0
43,2.293,-0.5015869140625,-1.3373565673828125,-0.78851318359375,0.714013260065511,-0.5624652804504513,0.22926764344788675,0
44,2.342,0.341033935546875,-0.7732086181640625,-0.05810546875,-0.0749372027417869,-0.5518979224493781,0.402602968267237,0
45,2.392,0.82781982421875,-0.327117919921875,0.561614990234375,0.8641074000439869,-0.6261357162850694,0.7865459855954842,0
46,2.442,0.125396728515625,-0.8351593017578125,0.337615966796875,0.37478762661938586,-0.6729138839245102,0.13787355036939108,0
47,2.492,-1.0935821533203125,-1.7616729736328125,-0.7933807373046875,0.34158534599953577,-0.7171432838874647,0.2347218032730024,0
48,2.542,-0.32080078125,-1.2410125732421875,-0.20220947265625,0.31931950251284624,-0.6517748481324885,0.177795061322752,0
49,2.592,0.454681396484375,-0.57379150390625,-0.022003173828125,-0.038318820968367064,-0.5964563924594328,0.6207834510400457,0
50,2.641,0.7112579345703125,-0.2267303466796875,0.4759368896484375,0.9027914910609102,-0.6137924922797886,0.8033810939733371,0
51,2.691,0.1493682861328125,-0.7148284912109375,0.96527099609375,0.8942302010961412,-0.5991706909323202,0.8423309967462268,0
52,2.803,-0.089874267578125,-2.0600128173828125,0.756561279296875,0.9281489046491566,-0.4965142383870904,0.7489434236749257,0
53,2.853,1.1822357177734375,-0.4105987548828125,0.6037445068359375,0.9918571960761373,-0.47360337936480396,0.639230429113903,0
54,2.963,2.763427734375,1.6601104736328125,0.370330810546875,0.9998237493119269,-0.4479330480132515,0.7298963316086658,0
55,3.072,-3.934539794921875,-1.5178375244140625,-2.3357391357421875,0.9816824818171297,-0.26304997492364535,0.931549390325944,0
56,3.142,-2.775909423828125,0.9293975830078125,-0.0782470703125,0.9020559544800673,-0.34237353460996345,0.8024353974400551,0
57,3.192,-0.64947509765625,0.58282470703125,-0.1428985595703125,-0.2381296611297503,-0.48804628038074416,-0.7344811217871006,0
58,3.242,-0.1437225341796875,-0.121673583984375,1.0589599609375,0.9934637414427385,-0.5226279007762085,-0.13362418193036255,1
59,3.292,0.7517242431640625,-0.2621917724609375,0.4983978271484375,0.8850081311461448,-0.5420526929329962,0.8003253951541373,0
60,3.342,1.0479278564453125,-0.197967529296875,0.99920654296875,0.7678067601283829,-0.5746143973753401,0.7865217488571175,0
61,3.391,0.8741607666015625,0.0330963134765625,0.0462799072265625,0.8134071713063841,-0.5733778247035066,0.9978885579339333,0
62,3.441,0.8546600341796875,-0.2879638671875,0.5460052490234375,0.884522183502923,-0.5689843650362689,0.8106639695695615,0
63,3.491,0.469970703125,-0.915069580078125,-0.234405517578125,-0.2481491554666948,-0.5625070402241586,0.4454406976620716,0
64,3.588,-0.4674835205078125,-2.0599365234375,-0.3097076416015625,-0.1374361047136239,-0.5301507539627693,0.429742610410075,0
65,3.638,0.34478759765625,-0.8895263671875,0.4789886474609375,0.4741097302581825,-0.5143871101539023,0.32298469086003717,0
66,3.688,0.529510498046875,-0.4981536865234375,0.8304595947265625,0.5303423345845736,-0.54351070845254,0.3464874291420515,0
67,3.738,-0.4530181884765625,-1.552581787109375,-0.30462646484375,0.6045329975038702,-0.6195017548049158,0.39828666100046484,0
68,3.788,-1.10321044921875,-2.024169921875,-0.0787506103515625,0.6946961065425359,-0.6153048059713526,0.33392295392657667,0
69,3.837,0.0927734375,-0.88421630859375,0.124725341796875,0.13967477431293038,-0.5987830261011021,0.10333695074124541,0
70,3.887,0.47955322265625,-0.2930908203125,0.4407501220703125,0.8326972490266158,-0.5744528527360475,0.6714204998451312,0
71,3.937,0.3837127685546875,-0.11871337890625,0.5666961669921875,0.9787550943127034,-0.5496041513318431,0.5524205024875147,0
72,3.987,-0.0256500244140625,-0.4444580078125,0.378692626953125,0.6485460946703034,-0.5438018410572822,-0.043885713388397675,0
73,4.037,-0.874176025390625,-1.158782958984375,0.2884674072265625,0.699663653251025,-0.5799346814363604,-0.05658834477291708,0
74,4.087,-0.13531494140625,-0.6778564453125,0.892364501953125,0.6402200991985985,-0.5613692546644179,-0.10940474254007841,0
75,4.136,0.502044677734375,-0.2371978759765625,0.5569305419921875,0.9200318884724792,-0.5609222798940366,0.6383786762218882,0
76,4.186,0.324951171875,-0.6386871337890625,0.5175628662109375,0.6295879413059384,-0.5563454167708833,0.36760832603234433,0
77,4.236,-0.64404296875,-1.641143798828125,0.2869415283203125,0.6487186693900464,-0.5806780725981211,0.38768223708723243,0
78,4.286,-0.197662353515625,-1.279144287109375,0.6656951904296875,0.5986183537067369,-0.5575707315473452,0.3375936321056245,0
79,4.336,0.565155029296875,-0.4908905029296875,0.2477874755859375,0.4506179417246507,-0.5764724069951986,0.7167239259267603,0
80,4.386,0.80926513671875,-0.1593475341796875,0.497528076171875,0.9523471338969941,-0.5964048129299079,0.8401469376784487,0
81,4.435,0.0040130615234375,-0.8091888427734375,0.3258209228515625,0.3735098772809501,-0.6219528077783317,0.004600386748393571,0
82,4.485,-0.416259765625,-1.45941162109375,0.2058563232421875,0.39261225328752775,-0.6331500751779053,0.04417663934839973,0
83,4.535,-0.110687255859375,-1.2093048095703125,0.4085235595703125,0.3757068693776516,-0.6165477713858288,0.03515688360943288,0
84,4.585,0.2841033935546875,-0.7022705078125,0.332763671875,0.42820113079831235,-0.6110874523929312,0.34335895157050705,0
85,4.635,-0.0350189208984375,-0.7750244140625,0.6888580322265625,0.6643355235192008,-0.6219747045009599,-0.033753046547028834,0
86,4.685,-0.457305908203125,-1.0695648193359375,0.8135986328125,0.6804315353067376,-0.6515883147725039,-0.014149745400742044,0
87,4.735,-0.3660125732421875,-0.959259033203125,0.6556396484375,0.6577632217684182,-0.6626396707430591,-0.03081989372328749,0
88,4.784,0.1292877197265625,-0.7709808349609375,0.3612518310546875,0.4242938272836355,-0.6843132100555627,0.1501287035566998,0
89,4.834,0.12841796875,-1.219024658203125,0.20965576171875,0.4488863874202363,-0.6941983275091633,0.1562166316304398,0
90,4.884,0.0359649658203125,-1.5539703369140625,0.371490478515625,0.4956763707176922,-0.6954157428043364,0.13484522175077682,0
91,4.934,0.37811279296875,-1.4503326416015625,0.3829498291015625,0.588791398124824,-0.6839610169355513,0.04005493357279274,0
92,4.984,1.311309814453125,-0.749114990234375,0.7308502197265625,0.7063892529329803,-0.6414050067696617,-0.06114785154053369,0
93,5.076,2.29107666015625,0.6614227294921875,0.3909912109375,0.8206017890557863,-0.5972479365504059,-0.04276694951734488,0
94,5.126,-2.81060791015625,1.1936187744140625,-0.51507568359375,0.9178885117148382,-0.5745823503974942,0.1984234112971553,0
95,5.205,-2.185699462890625,-0.5981597900390625,0.323944091796875,0.9786860205382015,-0.515073257380308,0.38994081030405475,0
96,5.275,-1.9947357177734375,1.057464599609375,0.698638916015625,0.9835247314057571,-0.6370891538599799,0.3328399792577354,1
97,5.325,-0.95623779296875,0.5899505615234375,0.536651611328125,0.9112801980256716,-0.691897823804793,0.12896578934677277,0
98,5.375,-0.57110595703125,0.0053253173828125,1.138397216796875,0.8589607207689969,-0.7698309436497844,0.006928796614381236,0
99,5.425,0.295654296875,-0.07122802734375,0.5958709716796875,0.9929312372024787,-0.7815129643467095,0.4419415317920991,0
100,5.475,0.8093414306640625,-0.1810760498046875,0.4542083740234375,0.9289043468518938,-0.7910074199310634,0.8559178563769948,0
101,5.524,1.165740966796875,-0.02947998046875,0.038543701171875,0.7927747356595395,-0.7963250317050505,0.8034411706456185,0
102,5.574,1.4515838623046875,-0.5167083740234375,0.198211669921875,0.6814488164435741,-0.8097563976012024,0.7892692969055385,0
103,5.624,-0.009063720703125,-2.00640869140625,-0.428680419921875,0.6504063079909104,-0.8499708514311903,0.8481647108122555,0
104,5.674,-0.4684295654296875,-2.24755859375,0.1463623046875,0.720916970372838,-0.8991233016609138,0.8872384013560436,0
105,5.724,0.6426849365234375,-0.5943450927734375,0.007904052734375,0.013297584146942064,-0.8759484291337014,0.7341483620636536,0
106,5.774,1.043792724609375,0.204376220703125,0.0924072265625,0.4119876872136415,-0.8468011997698202,0.9776820808665071,0
107,5.823,0.8230438232421875,0.300079345703125,0.713165283203125,0.3297579450018997,-0.8289751728628408,0.9816626311234724,0
108,5.873,0.116241455078125,-0.77471923828125,0.5688629150390625,0.5918611571949302,-0.8142374610711831,0.12006601863762328,0
109,5.973,-0.031890869140625,-2.4046478271484375,1.3687286376953125,0.7405109883443112,-0.7603018559955145,0.08782224067159847,0
110,6.023,1.5594940185546875,-0.5574951171875,0.437469482421875,0.7898016038240628,-0.6519823245432562,-0.08795757596208571,0
111,6.222,-2.5155181884765625,-1.30157470703125,-2.2605438232421875,0.569270207812146,-0.4867126620392116,0.24978888926031,0
112,6.279,-2.09613037109375,0.46435546875,1.7773590087890625,0.272201331503782,-0.5504849143696952,0.04181189298490992,0
113,6.329,-0.9775238037109375,0.7994537353515625,-0.3273162841796875,0.1749962137996154,-0.6570187161029105,-0.08433198016372957,1
114,6.379,-0.604644775390625,-0.0972747802734375,1.002716064453125,0.005356164036508486,-0.6876695385293402,-0.18343808165443076,0
115,6.429,0.1824951171875,-0.245635986328125,0.6457061767578125,0.9346548805621037,-0.7012794223947819,0.2553995995098608,0
116,6.479,1.2250213623046875,-0.2649993896484375,0.670745849609375,0.8481491528443095,-0.7505953439567943,0.2205015228942648,0
117,6.529,1.0894622802734375,-0.18450927734375,0.03240966796875,0.7686751808910374,-0.8057080370776557,0.20560754140224874,0
118,6.578,1.676177978515625,-0.27166748046875,0.6700897216796875,0.6529580999734343,-0.8026515088454781,0.29491734994320284,0
119,6.628,0.562255859375,-1.0912322998046875,-0.2528839111328125,0.6020989555494878,-0.8135527672273115,0.3974241696158427,0
120,6.678,-0.224853515625,-1.9219207763671875,-0.0247650146484375,0.6670346125376467,-0.8437832360180805,0.46556765150699175,0
121,6.728,-0.07403564453125,-1.5267181396484375,0.5411834716796875,0.6201747746332669,-0.8034677036912564,0.4347820630163345,0
122,6.778,0.4064788818359375,-0.89776611328125,0.1195831298828125,0.13203460312056384,-0.7691389892053582,0.4094563829686331,0
123,6.828,0.3369598388671875,-0.7299957275390625,0.0630645751953125,0.0860697499438147,-0.7477326321137848,0.4178145791422665,0
124,6.877,0.0678558349609375,-0.791534423828125,0.391815185546875,0.4436302880744468,-0.6829272111421565,0.0766035906401212,0
125,6.927,-0.165374755859375,-0.7385101318359375,0.5112152099609375,0.5691640411730254,-0.6134292036442754,-0.18107710219835457,0
126,6.977,-0.34979248046875,-0.801055908203125,0.5547943115234375,0.5693606128332295,-0.564284891943787,-0.3378664498393618,0
127,7.027,-0.1910400390625,-0.7689056396484375,0.542449951171875,0.5764654458480115,-0.5306697252622177,-0.1989607393839003,0
128,7.077,0.0802459716796875,-0.8726654052734375,0.5180206298828125,0.5104480809650671,-0.5217123375548972,0.0788268674392813,0
129,7.127,-0.436920166015625,-1.441741943359375,0.1806182861328125,0.5281300910861443,-0.5659869620541003,0.13825252613628555,0
130,7.177,-0.7880859375,-1.7817230224609375,0.5754547119140625,0.5437887275699466,-0.5929846452921315,0.13764234699808922,0
131,7.226,-0.461029052734375,-1.241668701171875,0.62432861328125,0.4629164699245727,-0.5959260882952438,0.11666567467991117,0
132,7.276,-0.30511474609375,-0.9547576904296875,0.214111328125,0.21882230769423977,-0.6543814475333448,-0.2976905028185803,0
133,7.326,-0.2914581298828125,-0.83123779296875,0.4278106689453125,0.4576161066407137,-0.7235744764492075,-0.2976347320255584,0
134,7.376,-0.4183197021484375,-0.8391876220703125,0.46356201171875,0.48352664017104996,-0.7832722619503765,-0.3999230548633157,0
135,7.426,-0.775238037109375,-1.4097442626953125,0.1811676025390625,0.47974854974316244,-0.8534835307249996,-0.35498900756863905,0
136,7.476,-0.777587890625,-1.6650238037109375,0.1967315673828125,0.4996779080946292,-0.8966829208342818,-0.34061263010110465,0
137,7.525,-0.3914642333984375,-1.2601470947265625,0.38055419921875,0.5230990669696315,-0.9243371146921582,-0.35757047523936236,0
138,7.575,-0.07470703125,-0.733123779296875,0.242034912109375,0.3134990059050094,-0.9534773095513828,-0.09631542132711197,0
139,7.625,0.2096405029296875,-0.4551849365234375,0.2095489501953125,0.4181755117312951,-0.9748882228189593,0.3859446336458794,0
140,7.675,0.0415191650390625,-0.49371337890625,0.27001953125,0.47983973770533,-0.987187711544297,0.07358185814195613,0
141,7.725,-0.1807098388671875,-0.8208770751953125,0.157806396484375,0.18878442815954338,-0.9959324904512569,-0.2113026246184221,0
142,7.775,-0.351654052734375,-0.9757843017578125,0.4387664794921875,0.2150234194995196,-0.9999995354160268,-0.2152893320155099,0
143,7.824,-0.0322723388671875,-0.4951019287109375,0.1631011962890625,0.312888797522155,-0.9976934273970823,-0.06179204919530292,0
144,7.874,0.5019683837890625,-0.09130859375,-0.0440216064453125,-0.43428173723252483,-0.9852054315599097,0.9802136646991709,0
145,7.924,0.5439605712890625,0.0092315673828125,0.194305419921875,0.9988732784875258,-0.969793514737264,0.9416031360925681,0
146,7.974,0.3248138427734375,-0.193878173828125,0.1656494140625,0.6495881899262858,-0.9490467641056595,0.786558341324538,0
147,8.024,0.087615966796875,-0.7459869384765625,0.044891357421875,0.06006847163981842,-0.9354720862612951,0.11644016460006607,0
148,8.136,-0.1128692626953125,-2.183197021484375,0.4415130615234375,0.049938481682077075,-0.9543122800776476,-0.03472851615858178,0
149,8.186,1.16278076171875,-0.53131103515625,0.4007720947265625,0.24097911430385527,-0.9669219294812829,-0.16632751337679713,0
150,8.315,2.4745025634765625,0.8910980224609375,0.7555999755859375,0.48192761563022235,-0.9746039898212755,-0.03663901005082672,0
151,8.505,-2.3812103271484375,1.385498046875,-0.3932037353515625,0.30738193921360124,-0.9108894617106201,-0.261815937667809,1
152,8.554,-0.65716552734375,0.3312530517578125,0.7965545654296875,0.9233420163749066,-0.8527881004544426,-0.6059735985671886,0
153,8.604,0.162322998046875,-0.2232513427734375,0.4125213623046875,0.8794684454164842,-0.8154968720992622,0.32703302778680804,0
154,8.654,0.69476318359375,-0.3450927734375,0.6649932861328125,0.8876009722420605,-0.7886760457596855,0.6799646647298558,0
155,8.704,0.880706787109375,-0.4383392333984375,0.4315948486328125,0.7016036717025722,-0.7487676479463253,0.8198174888661708,0
156,8.754,1.0236053466796875,-0.5822906494140625,-0.3399505615234375,0.5770029487191451,-0.6983322379275623,0.8450729059829893,0
157,8.804,0.8410797119140625,-0.988555908203125,1.096527099609375,0.5403923594901511,-0.713256536166886,0.8932763279422092,0
158,8.883,-0.292724609375,-2.019805908203125,-0.3105621337890625,0.52949554178093,-0.7227827520143044,0.8902000236714732,0
159,8.933,0.1807403564453125,-1.2951507568359375,0.3918304443359375,0.5536742394063053,-0.7243416782259039,0.8735032989700355,0
160,8.983,0.48284912109375,-0.756011962890625,0.048309326171875,0.06377015224207436,-0.72323641303422,0.5374849342467758,0
161,9.033,0.630157470703125,-0.428680419921875,0.140228271484375,0.310904603047684,-0.7143718687688247,0.8131711936040877,0
162,9.083,0.6945037841796875,-0.20648193359375,0.2590179443359375,0.7819462307956043,-0.7079474998091019,0.9025921236939249,0
163,9.133,0.7275848388671875,-0.1801605224609375,0.2322998046875,0.790203898650778,-0.7174958458835308,0.9271789173639378,0
164,9.182,-0.3510284423828125,-1.707855224609375,-0.1284637451171875,0.7651800337185817,-0.7268198411599244,0.9628087247401436,0
165,9.27,0.3065643310546875,-2.3941497802734375,0.504302978515625,0.7766090242247404,-0.8017798102211489,0.8659796700800971,0
166,9.581,-2.1158447265625,0.763519287109375,0.547760009765625,0.6222333104946076,-0.7523254347261324,0.7354959014626228,0
167,9.631,-1.006317138671875,1.1810150146484375,1.05633544921875,0.5871354470177164,-0.6953215027572555,0.5950285527434677,0
168,9.681,-1.731689453125,0.10906982421875,0.952484130859375,0.4406236917096221,-0.640240184694862,0.5128368283318921,1
169,9.731,-0.3352203369140625,-0.3726806640625,0.30511474609375,0.6334792825045757,-0.6324549662731749,-0.5712482948670742,0
170,9.78,0.39605712890625,-0.5810089111328125,0.83392333984375,0.8204952575115801,-0.67326797756763,0.3630862204091325,0
171,9.83,0.789947509765625,-0.45745849609375,-0.0178070068359375,-0.03889649322864031,-0.7360584516103661,0.8652044560556365,0
172,9.88,0.934051513671875,-0.7017059326171875,0.181365966796875,-0.17753412537094612,-0.7469948304755408,0.8609788254231419,0
173,9.93,0.48699951171875,-1.001678466796875,-0.1463165283203125,-0.29744067283247894,-0.7002087937249974,0.8794279434831019,0
174,9.98,0.41778564453125,-1.059356689453125,-0.023284912109375,-0.32042741881536857,-0.6458938317951695,0.901544444202169,0
175,10.03,-0.1977386474609375,-1.701171875,-0.5088653564453125,-0.3470369401134878,-0.560541985152519,0.9283352660772348,0
176,10.08,-0.235748291015625,-1.643768310546875,-0.5589752197265625,-0.31301137328857837,-0.49110999831422525,0.9138604160762307,0
177,10.129,0.0641021728515625,-1.2115325927734375,-0.03094482421875,-0.3068318733440105,-0.4715103565903468,0.8874384946223828,0
178,10.179,0.13580322265625,-1.0150909423828125,-0.1786041259765625,-0.17328702496120416,-0.4120307963496806,0.13063126678098144,0
179,10.229,0.289520263671875,-0.8762969970703125,0.177154541015625,0.1981539678389018,-0.3625731880745983,0.3080870875247539,0
180,10.279,0.453216552734375,-0.6030426025390625,0.1656494140625,0.2648780287020884,-0.33335473988264114,0.5868114652889865,0
181,10.329,0.61102294921875,-0.5220794677734375,0.0428009033203125,0.08170746967654471,-0.29425059063931314,0.759197036827754,0
182,10.379,0.336517333984375,-0.7203369140625,0.1095733642578125,0.1503841524476961,-0.21325489466474948,0.419294165735154,0
183,10.428,0.0644683837890625,-0.9603729248046875,-0.4547576904296875,-0.42796658893432965,-0.1331946448375695,0.06055901008541499,0
184,10.478,-0.080474853515625,-1.1110687255859375,-1.26177978515625,-0.42314088519210563,-0.05802816847652367,0.03913505979725747,0
185,10.528,0.169952392578125,-0.85321044921875,-0.7281951904296875,-0.4530281409594677,-0.08331763046343514,0.011529897330860924,0
186,10.578,0.771759033203125,-0.3531646728515625,-0.6869049072265625,-0.8893408267209898,-0.09055080809501168,0.7068245073208832,0
187,10.628,0.7602996826171875,-0.1243133544921875,-0.2056884765625,-0.8558359127727262,-0.0358678250879185,0.9534955805011953,0
188,10.678,0.31829833984375,-0.324859619140625,0.3502960205078125,0.733226752684415,-0.008857223905943514,0.5544603336867208,0
189,10.727,-0.426849365234375,-1.028167724609375,0.0089569091796875,0.740192030462456,0.008708201454184281,0.6562842462718709,0
190,10.777,-1.0588836669921875,-1.8669281005859375,-0.460479736328125,0.8081682585884662,0.061966439442882826,0.7223769218813101,0
191,10.827,-1.001129150390625,-1.8839569091796875,0.5409393310546875,0.8924757897319391,0.1274857679449767,0.741417472759167,0
192,10.877,-0.1727752685546875,-1.109405517578125,0.7354278564453125,0.8775202732937768,0.14054541251984087,0.707144267803561,0
193,10.927,0.3679962158203125,-0.4582672119140625,-0.055145263671875,-0.11947240709940288,0.21953331373253296,0.6233902409959851,0
194,10.977,0.5560760498046875,-0.1722412109375,0.3974151611328125,0.9175320609895459,0.2947052335963919,0.7889179725562316,0
195,11.026,-0.230987548828125,-0.761993408203125,0.16778564453125,0.21504159894114855,0.3250046906063394,-0.2838659205262964,0
196,11.106,-1.0982513427734375,-1.980804443359375,0.9487152099609375,0.3062701086197858,0.42585096996143995,-0.25176171925826046,0
197,11.156,0.3404693603515625,-0.97784423828125,0.33160400390625,0.32115340491093347,0.4711283429127312,0.3131542299730846,0
198,11.206,1.4201507568359375,-0.487884521484375,0.7581787109375,0.3968393726127655,0.5324553821179143,0.24868571940702427,0
199,11.256,1.6184234619140625,-0.3894805908203125,0.806060791015625,0.6006152946490189,0.6109917241032756,0.30227277607919883,0
200,11.305,1.917999267578125,0.19415283203125,0.3905792236328125,0.7068365790051929,0.619613291923459,0.369778451466461,0
201,11.355,0.3506927490234375,0.43389892578125,0.31298828125,0.5850197742786156,0.6185819303793418,0.5482148940632661,0
202,11.545,-2.097503662109375,1.4173583984375,0.0008697509765625,0.7440445079309249,0.7570888657970644,0.3397725429707763,1
203,11.595,-0.5937652587890625,0.0508880615234375,0.01776123046875,0.329530628690928,0.8216651897519052,-0.9959053091270335,0
204,11.644,0.174468994140625,-0.5307464599609375,0.8656158447265625,0.8525100952501861,0.8752317642996345,0.1693457140406391,0
205,11.694,0.737640380859375,-0.5819549560546875,0.4049072265625,0.5711300693470187,0.8914600465436762,0.7209852155967114,0
206,11.744,1.03436279296875,-0.4149017333984375,0.512542724609375,0.5116989955475598,0.9081298441206882,0.6550099426983576,0
207,11.794,1.1960601806640625,-0.1077728271484375,0.66204833984375,0.4664861938540217,0.9106525842188871,0.6163533238442385,0
208,11.844,0.6967315673828125,-0.6035003662109375,0.7722625732421875,0.47294172654604344,0.9176283467076921,0.6475557688899203,0
209,11.894,-0.098602294921875,-1.4215240478515625,0.6798553466796875,0.49607931857552146,0.9308153356172869,0.693977833251386,0
210,11.943,0.265289306640625,-0.8633270263671875,0.3311614990234375,0.35814294729764196,0.9281251426546121,0.27577805958224116,0
211,11.993,0.5236358642578125,-0.4454345703125,0.48419189453125,0.7359476523320984,0.9251219071645937,0.6227372628800494,0
212,12.043,0.8295440673828125,-0.0873870849609375,0.5964508056640625,0.9894369025985599,0.9270491288255076,0.8089616253218356,0
213,12.093,1.0442047119140625,0.269561767578125,0.3733062744140625,0.976610386065104,0.9302186585394941,0.8137250522081926,0
214,12.143,0.70257568359375,0.1146087646484375,0.41448974609375,0.9638334236970012,0.9337925197286489,0.852908306625137,0
215,12.193,-0.0203704833984375,-1.301971435546875,0.124847412109375,0.9911864961631216,0.9421253650858282,0.9250823054744504,0
216,12.292,0.4170379638671875,-2.2647552490234375,0.229461669921875,0.987749029913479,0.9117215683567326,0.8375264948498619,0
217,12.342,1.3102569580078125,0.1351318359375,0.09820556640625,0.9618420027299451,0.8819296950894808,0.6916973833558889,0
218,12.452,2.03753662109375,1.3369598388671875,0.0842742919921875,0.8916949520268084,0.8288739777786495,0.747440395639889,0
219,12.581,-2.494232177734375,-1.64483642578125,0.2275848388671875,0.807298742322354,0.8016871070820438,0.8249680892944514,0
220,12.631,-2.2526397705078125,0.672332763671875,0.869293212890625,0.8207519674695689,0.8613048579914948,0.7290090918120974,0
221,12.681,-1.523162841796875,0.1714019775390625,0.2414398193359375,0.8387503636659377,0.9095131066966083,0.6104869631689922,1
222,12.731,-1.21905517578125,-0.1964874267578125,1.2889862060546875,0.8420978542762336,0.9478185032252268,0.5339951621853165,0
223,12.781,-0.088104248046875,-0.3933868408203125,0.6123809814453125,0.8413575712401123,0.9691986525512687,-0.12017028697342708,0
224,12.83,0.4549713134765625,-0.44915771484375,0.898895263671875,0.7964955966341833,0.9867592446729451,-0.1421340226914272,0
225,12.88,0.676422119140625,-0.4923858642578125,0.15313720703125,0.2969790163503276,0.9969553815075115,0.7952726068705469,0
226,12.93,1.017730712890625,-0.26397705078125,0.0849761962890625,0.3064223638025517,0.9998041434593815,0.9648229263188719,0
227,12.98,1.0013275146484375,-0.3934173583984375,0.4016571044921875,0.19563171616381997,0.9971498744953716,0.9799416373168458,0
228,13.03,0.8965606689453125,-0.47271728515625,0.3596038818359375,0.6054447201130433,0.9894733668431573,0.8336591792305478,0
229,13.08,0.4409942626953125,-0.97320556640625,0.10638427734375,0.10866594649270872,0.9803460713727721,0.4107077119085577,0
230,13.179,-0.218536376953125,-2.19805908203125,0.25787353515625,0.1298823936715328,0.9800058594359677,0.40447460294635096,0
231,13.229,0.609161376953125,-0.998504638671875,-0.0126953125,0.09425776021080753,0.9884948383602251,0.33431455872122556,0
232,13.279,0.7072906494140625,-0.4146728515625,-0.0449371337890625,-0.1077369166779259,0.9933722919379907,0.8613763026875877,0
233,13.329,0.68927001953125,-0.1498870849609375,0.42315673828125,0.942613853824141,0.9985941994776818,0.8379472444604984,0
234,13.379,0.664337158203125,-0.437286376953125,0.3468475341796875,0.621432325720698,0.9999359638695138,0.7656487417730972,0
235,13.488,-0.0921630859375,-2.1207733154296875,0.3513031005859375,0.6701666952796824,0.994295755587241,0.6644085612851959,0
236,13.538,1.51177978515625,0.2617034912109375,0.5232086181640625,0.7353992034292759,0.9651350971849764,0.46630525798174494,0
237,13.648,2.2413482666015625,1.0405731201171875,0.38848876953125,0.8518108910899409,0.9189517811259793,0.5686854744302549,0
238,13.797,-1.4432220458984375,-0.7322235107421875,2.7747955322265625,0.9276484874693797,0.9239609086663784,0.6557143197497,0
239,13.847,-0.9878692626953125,1.34124755859375,-0.6470489501953125,0.8518347265013773,0.9556215723885478,0.49459830490702295,0
240,13.897,-1.700469970703125,-0.0381927490234375,1.3403472900390625,0.8549313890477728,0.959579404177789,0.34571869468412775,0
241,13.947,-1.179534912109375,0.0164031982421875,0.93365478515625,0.8299007006997303,0.9891965789463303,0.22936315397540616,0
242,13.997,-0.2500457763671875,-0.37109375,0.3330230712890625,0.6678988759351958,0.9951078685114805,-0.4482735511467936,1
243,14.047,0.5631256103515625,-0.5051727294921875,0.7780609130859375,0.838722725138612,0.9987785121939188,0.5189075869890946,0
244,14.096,0.9037322998046875,-0.34124755859375,0.0037994384765625,0.011133275253508858,0.999716050746948,0.9355204312173162,0
245,14.146,1.0596160888671875,-0.4216766357421875,0.8100433349609375,-0.04237166594026651,0.9999613376684412,0.9227973445455897,0
246,14.196,0.5960540771484375,-0.6653900146484375,0.2337493896484375,0.33144019068426395,0.9993430394426417,0.645501009269227,0
247,14.246,0.7985687255859375,-0.420989990234375,0.4107208251953125,0.6983228794875986,0.9996261281260672,0.8051838420499569,0
248,14.296,0.5042724609375,-0.88226318359375,0.6314697265625,0.6775617407718212,0.9997568335828538,0.8604607988931245,0
249,14.346,-0.113037109375,-1.978912353515625,0.3025970458984375,0.6475459304277144,0.999389713829087,0.9185754029361624,0
250,14.395,-0.0543975830078125,-1.9805450439453125,0.8399200439453125,0.6690622865478547,0.9991065144429001,0.9368128216601941,0
251,14.445,0.3742523193359375,-0.97906494140625,0.3530120849609375,0.6447037790299894,0.9993974994761171,0.9137743918572148,0
252,14.495,0.7181243896484375,-0.2694549560546875,-0.08453369140625,-0.2993362164708812,0.9998259752917812,0.9306263929993963,0
253,14.545,0.7061309814453125,-0.0829620361328125,0.50848388671875,0.9869500805248829,0.9999748841423494,0.8078331473493989,0
254,14.595,0.82525634765625,-0.1429595947265625,0.543609619140625,0.9671163689742155,0.999405908879621,0.8264983080452455,0
255,14.645,-0.15484619140625,-1.830322265625,-0.0529937744140625,0.9530418190765205,0.9948714660810317,0.8744367754563905,0
256,14.702,-0.5279388427734375,-2.29425048828125,0.9370880126953125,0.9901595805480586,0.9866123449210155,0.8147227187486086,0
257,14.752,1.125732421875,-0.7781524658203125,1.16668701171875,0.9973600605407584,0.9901519368320805,0.7633886412298592,0
258,14.802,1.648712158203125,-0.3889617919921875,0.8519439697265625,0.9577491329413825,0.9933439987515227,0.7573468794801165,0
259,15.051,-2.23846435546875,0.9593048095703125,0.435943603515625,0.999896664593718,0.9929169435720855,0.5356645397897506,0
260,15.101,-0.7779541015625,1.2669219970703125,0.00762939453125,0.9999320713733433,0.9993077337831178,0.46847546807117435,1
261,15.15,-1.47161865234375,0.0780029296875,1.406341552734375,0.9999600784876881,0.9813343788966212,0.39845730452618516,0
262,15.2,-0.5798187255859375,-0.209136962890625,0.5765838623046875,0.9400705867837946,0.973711421959105,-0.6869692541694974,0
263,15.25,0.20361328125,-0.42376708984375,1.114990234375,0.8502510830032063,0.9691128663504833,-0.7597854072899227,0
264,15.3,0.6354827880859375,-0.511016845703125,0.264923095703125,0.4602506182105236,0.9641501089957836,0.7411610884703582,0
265,15.35,0.83770751953125,-0.3766632080078125,0.62847900390625,0.4233319773903954,0.9390597037717139,0.7623285004559768,0
266,15.4,0.491790771484375,-0.7437744140625,0.3014678955078125,0.3756384670887621,0.9174989852664516,0.5224898620783927,0
267,15.449,0.5156097412109375,-0.4925994873046875,0.3214263916015625,0.5464655979118628,0.9128711390489542,0.6591865861527456,0
268,15.499,0.564697265625,-0.8881072998046875,-0.0445709228515625,-0.05012333397464924,0.8730432234780051,0.5360825239042765,0
269,15.581,-0.43743896484375,-1.99444580078125,0.825469970703125,-0.0019784001103473267,0.8507891708743134,0.5671213793859946,0
270,15.631,0.3909912109375,-0.81903076171875,-0.00469970703125,-0.005738038033681201,0.8642105647822536,0.4308047248107263,0
271,15.681,1.0206146240234375,-0.3101959228515625,-0.03070068359375,-0.09849070769904554,0.8598309157130883,0.9563890104315863,0
272,15.731,1.111785888671875,-0.265533447265625,0.1232757568359375,-0.11157608067016367,0.8602996610147303,0.9561976877022629,0
273,15.781,0.5124359130859375,-1.438690185546875,-0.1037445068359375,-0.1530931511607008,0.8816347604849721,0.9734274212707559,0
274,15.871,0.0647430419921875,-2.0595855712890625,0.4030303955078125,-0.006433794323281554,0.940017106922709,0.9340780211690733,0
275,15.92,1.34619140625,0.0059967041015625,0.3438568115234375,0.20885882782215168,0.9746749223275972,0.8676504580822204,0
276,16.008,2.051239013671875,0.3260498046875,0.7699127197265625,0.45938727333642604,0.9884976359753065,0.9381418025046163,0
277,16.06,0.4710693359375,0.47808837890625,0.80572509765625,0.8600003832403964,0.9935571208308763,0.44921483546928687,0
278,16.209,-1.3921356201171875,-0.121978759765625,2.688323974609375,0.9273433225101333,0.9742462927993637,0.32044461474875663,0
279,16.259,-0.376190185546875,1.255157470703125,-0.9544525146484375,0.9574323483544471,0.9621036164899162,0.16452380243598438,0
280,16.309,-1.935089111328125,0.07855224609375,1.041473388671875,0.9386394683695031,0.9349400998965477,0.051913565657158656,1
281,16.359,-0.864593505859375,0.43048095703125,0.906829833984375,0.9759646409419169,0.9249423382095312,-0.09240065515746164,0
282,16.409,-0.31085205078125,-0.139617919921875,1.0063934326171875,0.9905135775546435,0.9003375014832845,-0.292560979748158,0
283,16.459,0.22540283203125,-0.454132080078125,0.5125885009765625,0.7484974882688786,0.876826483438728,0.31264081784853603,0
284,16.508,0.7515106201171875,-0.5556640625,0.8314666748046875,0.649671247609957,0.8686894792278045,0.2771582210670894,0
285,16.558,0.764801025390625,-0.5591583251953125,0.2595367431640625,0.4210145798645906,0.8444411238745241,0.7785719717776055,0
286,16.608,0.777191162109375,-0.684783935546875,0.3786468505859375,0.3788150761763293,0.7920720738681741,0.8057618372224107,0
287,16.658,0.5162353515625,-1.04388427734375,0.324615478515625,0.320753177565551,0.765257584714531,0.854165819689732,0
288,16.708,0.3243865966796875,-1.5290985107421875,0.41424560546875,0.3195875645074675,0.7514188335284774,0.8891427403131887,0
289,16.758,-0.1316680908203125,-1.8712005615234375,0.5144805908203125,0.34257103284767493,0.7344482717274187,0.8961420557567165,0
290,16.807,0.149658203125,-1.1519317626953125,0.478057861328125,0.3052227555896069,0.7379712340966741,0.863388951856163,0
291,16.857,0.5118865966796875,-0.5031890869140625,0.1039581298828125,0.20232572599660661,0.742308790598878,0.7057756482242635,0
292,16.907,0.913909912109375,-0.241668701171875,0.457244873046875,0.8841092187722968,0.7438030850219214,0.8703083140436922,0
293,16.957,0.7957611083984375,-0.1544189453125,0.308441162109375,0.8941970427700718,0.740233115297661,0.9175107594223595,0
294,17.007,0.552459716796875,-0.400421142578125,0.2118988037109375,0.4677345082374246,0.7356625563289793,0.7732573216196732,0
295,17.057,-0.0621795654296875,-1.7556915283203125,-0.0421142578125,0.444701988805243,0.742871769898123,0.8304993967213137,0
296,17.136,0.737152099609375,-2.1014556884765625,0.5131378173828125,0.5061823553181325,0.7792614723223152,0.8115532083990821,0
297,17.186,1.652679443359375,-0.6916961669921875,0.5236968994140625,0.6284594541307202,0.8060848682875192,0.7380652671962401,0
298,17.256,2.0669403076171875,0.1652069091796875,0.5220947265625,0.8011417092022646,0.8561660075395765,0.7917650245678091,0
299,17.306,0.87835693359375,0.8547821044921875,0.57427978515625,0.9351040714322821,0.8920226746041318,0.9145394467037098,0
300,17.425,-2.5413818359375,-0.933929443359375,-0.2982940673828125,0.8904245032632577,0.9488149578794576,0.991984713298295,0
301,17.475,-1.7598419189453125,0.82659912109375,1.30670166015625,0.9416105580290456,0.8928304851053379,0.9772759858072028,0
302,17.525,-0.6110992431640625,1.3172149658203125,-0.2068939208984375,0.8084114294711295,0.8973018046465379,0.9125914515617074,0
303,17.575,-1.2933349609375,0.159759521484375,1.2054290771484375,0.8402350331817615,0.8316793409217536,0.9067262159373248,1
304,17.625,-0.6534423828125,-0.1394805908203125,1.14404296875,0.771372154737736,0.8068499839295309,0.8781185982484566,0
305,17.675,-0.30242919921875,-0.3332672119140625,0.6880645751953125,0.8999885422274406,0.7906038139496651,-0.36784271216198583,0
306,17.724,0.173797607421875,-0.5456085205078125,0.582305908203125,0.7297268041039161,0.7641863175643828,0.21280861192901754,0
307,17.774,0.3408355712890625,-0.5894927978515625,0.2880859375,0.4390741500126643,0.723869688130487,0.46098268750974775,0
308,17.824,0.6723785400390625,-0.7054595947265625,0.7680206298828125,0.29236640058718183,0.7047389132819771,0.4354093062639358,0
309,17.874,0.944305419921875,-0.7243804931640625,-0.089630126953125,0.08118325234223492,0.6731715098257915,0.42223132289434534,0
310,17.924,1.074371337890625,-0.656768798828125,0.14324951171875,-0.0159172166651944,0.6761723020344705,0.4481822324417853,0
311,17.974,0.30718994140625,-1.311981201171875,0.3167572021484375,-0.023073858848049977,0.6946488042600498,0.5405940959881553,0
312,18.033,-0.5831298828125,-1.9778594970703125,-0.16973876953125,0.02595627095600304,0.6147357710723066,0.6127726218574532,0
313,18.083,0.2964935302734375,-1.06439208984375,0.3188934326171875,0.09255451021453846,0.6158595771252109,0.5760380980689737,0
314,18.133,0.8383941650390625,-0.4573211669921875,0.0494232177734375,0.107445508915446,0.6298472685991571,0.8767156269054719,0
315,18.183,0.760284423828125,-0.3094024658203125,0.3363189697265625,0.7359429902838317,0.6453659779815493,0.8570848981708906,0
316,18.233,0.0545806884765625,-1.436187744140625,0.07965087890625,0.7313624399889466,0.660774875444026,0.8911745590548263,0
317,18.303,0.482696533203125,-2.1632537841796875,0.490966796875,0.7975787363494204,0.7241469603562732,0.8524673577861673,0
318,18.352,1.68182373046875,-0.90374755859375,0.52069091796875,0.9089100766010446,0.7535698560730666,0.7826141291094475,0
319,18.432,2.1414031982421875,0.180206298828125,0.770050048828125,0.9775876494436286,0.8094490693553338,0.7720118324264377,0
320,18.482,-0.266357421875,1.3973541259765625,0.0531463623046875,0.9999533791496213,0.8326858352670633,0.8959652877733509,0
321,18.582,-2.4544677734375,-0.7555389404296875,-0.775177001953125,0.9621823176923163,0.9305903081072541,0.9988439201898618,0
322,18.631,-1.606842041015625,0.1570281982421875,1.82110595703125,0.9966844921149268,0.9301887902551845,0.9997264567489945,0
323,18.681,-0.529327392578125,1.17889404296875,-0.88800048828125,0.978045954220654,0.8791641942842229,0.9792010359862338,0
324,18.731,-1.4182586669921875,0.1789703369140625,1.5247039794921875,0.9922414873367968,0.8570194160616563,0.9626414155308004,1
325,18.781,-1.2003173828125,0.1823883056640625,1.008392333984375,0.9734957983918046,0.8043497795805885,0.9386036895955958,0
326,18.831,-0.33563232421875,-0.233673095703125,0.51678466796875,0.911181036443454,0.823895903232142,-0.5092834732713298,0
327,18.881,0.200653076171875,-0.5113067626953125,0.6083526611328125,0.7655247848589075,0.8544375357743058,0.24481008573464563,0
328,18.931,0.487762451171875,-0.5326080322265625,0.259796142578125,0.4384063832976818,0.8888257273728408,0.6355096136121308,0
329,18.98,0.53997802734375,-0.9289093017578125,0.2781982421875,0.27202202756435795,0.8706019515604574,0.5917592400905443,0
330,19.03,0.401275634765625,-1.0097503662109375,-0.245025634765625,0.13468174512340822,0.8229640596963796,0.5817752806476308,0
331,19.08,0.378265380859375,-1.2946624755859375,-0.347015380859375,0.020654369744695145,0.7667040298595604,0.5921151455523836,0
332,19.13,0.5028533935546875,-1.264984130859375,-0.5043792724609375,-0.03200651470075898,0.718741161266585,0.5978921918608271,0
333,19.18,0.2680511474609375,-1.4795989990234375,-0.199188232421875,0.04573316877548679,0.6156237927207548,0.6285273714135382,0
334,19.23,0.3348541259765625,-1.3019256591796875,-0.119232177734375,0.07590496342962211,0.5628909500379876,0.6389220553455053,0
335,19.279,0.3092803955078125,-0.9098663330078125,-0.4040374755859375,-0.4058469140078444,0.5263708629298932,0.2966785114205191,0
336,19.329,0.5993804931640625,-0.535308837890625,-0.1071929931640625,-0.19634725292837543,0.5119858789022155,0.7392985288838393,0
337,19.379,0.46539306640625,-0.7799224853515625,-0.1783447265625,-0.22291594466281947,0.4755002074118034,0.5028187322189017,0
338,19.429,0.15142822265625,-1.91986083984375,-0.70379638671875,-0.18929594366449565,0.4172308012153111,0.5081943296885099,0
339,19.479,0.873321533203125,-1.7954864501953125,-0.3980255126953125,-0.08474843802202536,0.37906731181954184,0.4708896127584034,0
340,19.529,1.998931884765625,-0.8927154541015625,0.2610015869140625,0.12162354014183623,0.4159451905873851,0.3798261131915456,0
341,19.598,2.00213623046875,-0.162200927734375,0.3073272705078125,0.3761673888365356,0.475582185060994,0.449351180891252,0
342,19.648,1.13604736328125,-0.0540924072265625,0.27642822265625,0.5887909949264541,0.5497818214509912,0.6240461160203702,0
343,19.698,-0.5279541015625,0.418792724609375,0.27410888671875,0.5476452052369039,0.6273762559835228,-0.7257085206175774,0
344,19.808,-2.38720703125,-0.6153106689453125,0.9779510498046875,0.430883267122593,0.6510198544610486,-0.5864337926957469,0
345,19.857,-0.54296875,0.7890472412109375,1.260955810546875,0.5845878510013427,0.6502841067958017,-0.6718193598562145,0
346,19.907,-1.3274993896484375,0.3519287109375,-0.3901824951171875,0.59514072948917,0.5741184112797492,-0.7223088522424124,0
347,19.957,-1.6635894775390625,0.7285003662109375,1.3124237060546875,0.5805111967400249,0.5235501564955769,-0.8266353098891294,1
348,20.007,-1.0470733642578125,0.7203216552734375,0.55377197265625,0.7127954594069842,0.4689754655703208,-0.8985097564922484,0
349,20.057,-0.34820556640625,-0.0171661376953125,1.10491943359375,0.8200482272923951,0.4979688537296205,-0.9397474024587197,0
350,20.107,0.1439208984375,-0.4257965087890625,0.497161865234375,0.759514881871968,0.5602753608496256,0.21473896042440108,0
351,20.156,0.5468292236328125,-0.7081298828125,0.534698486328125,0.6025941730424762,0.6406026378637035,0.5246411048530732,0
352,20.206,0.4052886962890625,-0.9178009033203125,0.5309600830078125,0.36824856823276125,0.6554703370526598,0.4985422133023212,0
353,20.256,0.076324462890625,-0.8168792724609375,-0.4246063232421875,-0.4612066113910143,0.577240859486014,0.08262005475713856,0
354,20.306,-0.0418701171875,-1.0566864013671875,-0.4889068603515625,-0.6173009211523192,0.5040642528264327,0.10801291712190457,0
355,20.356,-0.169342041015625,-0.8998870849609375,-0.6689910888671875,-0.7711399076441224,0.44013388427361333,0.09940622419204743,0
356,20.406,-0.0481719970703125,-0.5506591796875,-0.8779296875,-0.8471501873143196,0.43561575905564687,-0.04643298969436568,0
357,20.456,-0.1977691650390625,-0.21234130859375,-1.154541015625,-0.9450243679950516,0.41988164894160906,-0.12557831076887407,0
358,20.505,-0.270050048828125,-0.228302001953125,-1.0520172119140625,-0.9809571857345045,0.41943242900460503,-0.22326860372454638,0
359,20.555,0.17218017578125,-0.0483551025390625,-1.1183624267578125,-0.9931572947355415,0.41118897809166294,-0.3211935674633405,0
360,20.605,0.2364349365234375,-0.255889892578125,-1.485107421875,-0.996232111113033,0.40178880259861927,-0.3695925841312071,0
361,20.655,0.2248687744140625,-0.274871826171875,-1.36669921875,-0.9913870014980923,0.39288416208809257,-0.3964340481864955,0
362,20.705,0.1849365234375,-0.3707275390625,-0.9025115966796875,-0.9250006791498115,0.4139036258028965,0.18622900482113433,0
363,20.755,0.120361328125,-0.4756622314453125,-0.923370361328125,-0.8889798121064473,0.3847503755405466,0.11510826983253428,0
364,20.804,0.126068115234375,-0.413543701171875,-0.7249908447265625,-0.8686231485408171,0.38421851494728454,0.14935017249527763,0
365,20.854,0.247161865234375,-0.376922607421875,-0.6345672607421875,-0.8597665272363731,0.4466496531911321,0.3175442077819183,0
366,20.904,0.181671142578125,-0.464874267578125,-0.848114013671875,-0.8769085163023291,0.5213146753761748,0.18461047693650973,0
367,20.954,0.3792266845703125,-0.279876708984375,-0.990264892578125,-0.9623045100513433,0.5335766411785925,0.3457863799521054,0
368,21.004,0.148223876953125,-0.3561859130859375,-1.0362091064453125,-0.9500647669904269,0.48903704986388324,0.33716093912545697,0
369,21.054,0.1533203125,-0.393951416015625,-0.704925537109375,-0.8729316488743177,0.5177392693586265,0.18652922618449527,0
370,21.103,0.285980224609375,-0.3309326171875,-0.8395538330078125,-0.9303330636436935,0.5230880177128636,0.30209617779257536,0
371,21.153,0.274383544921875,-0.4593353271484375,-0.755645751953125,-0.8545112791176471,0.5187893635758352,0.296345124750608,0
372,21.203,0.27752685546875,-0.3732757568359375,-1.010986328125,-0.8617976603480028,0.5092016814719034,0.28399829304785534,0
373,21.253,0.09375,-0.3444976806640625,-1.21966552734375,-0.8618112500353359,0.49494219115709426,0.2742055967619226,0
374,21.303,0.1266326904296875,-0.3445587158203125,-0.899658203125,-0.9338537127201516,0.5033963518218928,0.13032487180789837,0
375,21.353,0.1986236572265625,-0.2607421875,-0.8593902587890625,-0.9569251773526449,0.49793594171049804,0.215947657532579,0
376,21.402,0.1974639892578125,-0.3174591064453125,-0.792205810546875,-0.9282434641899441,0.48205055508206546,0.22541751659756057,0
377,21.452,0.1703948974609375,-0.313720703125,-0.8951416015625,-0.9437198332955564,0.466583876603494,0.17681170394986073,0
378,21.502,0.1832275390625,-0.3178863525390625,-0.9706573486328125,-0.9503343994160972,0.45964238101299953,0.17657258498936554,0
379,21.552,0.2065887451171875,-0.2714080810546875,-1.0768585205078125,-0.9528517302347518,0.4591114732824569,0.17806301972600758,0
380,21.602,0.1383514404296875,-0.3499603271484375,-0.91180419921875,-0.9335970438202459,0.4608111776263073,0.14025786032459672,0
381,21.652,0.1245574951171875,-0.360504150390625,-0.9236297607421875,-0.9315560070609358,0.4573934142369939,0.12464666514793825,0
382,21.701,0.104461669921875,-0.3896331787109375,-0.8535003662109375,-0.9096913430072022,0.45540527304302675,0.11065525006040519,0
383,21.751,0.0649566650390625,-0.3674774169921875,-0.93048095703125,-0.930092973682656,0.44591641075129684,0.06479314455502018,0
384,21.801,0.097747802734375,-0.367950439453125,-0.915130615234375,-0.92781158911597,0.4364450619191758,0.0986191956350095,0
385,21.851,0.02789306640625,-0.408660888671875,-0.8320770263671875,-0.897587921618879,0.4174913727868548,0.03007552538353715,0
386,21.901,-0.0400390625,-0.42584228515625,-0.947845458984375,-0.9121691734447842,0.4069620517819674,-0.038503445526132093,0
387,21.951,-0.039093017578125,-0.4537811279296875,-0.909088134765625,-0.8947273442218023,0.4134424623769348,-0.038447021168590036,0
388,22,0.2582244873046875,-0.3466796875,-0.7263946533203125,-0.9024852248826837,0.42094855837644474,0.30548611818915605,0
389,22.05,-0.130706787109375,-0.3411102294921875,-1.1581268310546875,-0.9001058535716373,0.3944222486559482,0.32447465567101474,0
