index,time,acc x,acc y,acc z,ori x,ori z,punch
0,0,-0.177490234375,-0.8445587158203125,-0.6976165771484375,-0.6368476083987088,-0.15994323582109418,None
1,0.05,0.080413818359375,-0.7609100341796875,-0.606903076171875,-0.6235510782556142,-0.08233910986156132,None
2,0.1,-0.2843475341796875,-0.83050537109375,-0.625946044921875,-0.6018857706405543,0.26373723717098446,None
3,0.149,0.078948974609375,-0.7004547119140625,-0.536773681640625,-0.6082591043464154,-0.08910721018061406,None
4,0.199,0.0169677734375,-0.7698822021484375,-0.5922088623046875,-0.6097054464345856,-0.01746641490947834,None
5,0.249,-0.039337158203125,-0.8064422607421875,-0.49774169921875,-0.5252217042947818,0.041473224242548616,None
6,0.299,-0.1355743408203125,-0.8365936279296875,-0.5636444091796875,-0.5587532807657865,0.13320026918059014,None
7,0.349,-0.17437744140625,-0.8932952880859375,-0.5906829833984375,-0.5515627507453987,0.1607120751582856,None
8,0.399,-0.239959716796875,-0.9691925048828125,-0.714813232421875,-0.5539947653565572,0.12799156066904416,None
9,0.448,-0.09332275390625,-0.819427490234375,-0.563232421875,-0.5664441534164142,0.09344424924523223,None
10,0.498,-0.0276336669921875,-0.745880126953125,-0.4856414794921875,-0.5456353738085555,0.031032448828417568,None
11,0.548,0.0189056396484375,-0.7860107421875,-0.3393402099609375,-0.396363637148689,-0.022077200027950477,None
12,0.598,-0.0140533447265625,-0.80487060546875,-0.6666107177734375,-0.6378578164527706,0.013445966564166325,None
13,0.648,0.0518951416015625,-0.8104095458984375,-0.80975341796875,-0.6283808123331854,0.007236589411742099,None
14,0.698,0.1485443115234375,-0.7781524658203125,-0.6222686767578125,-0.6245400227730377,-0.14745677477478092,None
15,0.747,0.11962890625,-0.826416015625,-0.2385101318359375,-0.27729040531808963,-0.13775390771152138,None
16,0.797,0.2092437744140625,-0.770599365234375,-0.328826904296875,-0.39247689538290315,-0.24230408005112888,None
17,0.847,-0.0813140869140625,-0.859527587890625,-0.5626373291015625,-0.5476846975926556,0.07890629003608006,None
18,0.897,-0.011016845703125,-0.8753814697265625,-0.4375457763671875,-0.4470950938345293,0.011256572131511561,None
19,0.947,-0.0743408203125,-0.9335174560546875,-0.5340118408203125,-0.49654073570290536,0.06895984035708713,None
20,0.997,-0.058929443359375,-0.9984893798828125,-0.538116455078125,-0.4203875768376453,0.08013464935475983,None
21,1.047,-0.304473876953125,-1.3754425048828125,-0.7579193115234375,-0.3540736547022605,0.06860205523990691,None
22,1.096,-0.0385284423828125,-1.6385040283203125,-1.3074493408203125,-0.13069128236641367,0.04545487096694029,None
23,1.146,0.814208984375,-1.4354095458984375,-0.036376953125,0.2158049488658351,0.06612764754466029,None
24,1.196,1.76019287109375,-1.146087646484375,0.768218994140625,0.5297451673563711,0.09286333402330074,None
25,1.407,-2.23486328125,0.1586151123046875,0.9848785400390625,0.3925532155679574,-0.13384694127715469,Straight
26,1.456,-1.359161376953125,0.8983612060546875,0.8838958740234375,0.20958448092579696,-0.3765163401703886,None
27,1.506,0.30267333984375,0.0969390869140625,1.1041717529296875,-0.04114738531148047,-0.5687860260699968,None
28,1.556,0.533416748046875,-0.475006103515625,0.478485107421875,0.7096820780997257,-0.6204566662645946,None
29,1.606,0.9569854736328125,-0.49102783203125,0.469970703125,0.577918500458117,-0.7229496432951562,None
30,1.656,0.9425201416015625,-0.5337066650390625,0.4629669189453125,0.48920774985918297,-0.7640246818885806,None
31,1.706,0.7723236083984375,-0.7790985107421875,0.4780731201171875,0.4268583222367093,-0.7773370236315932,None
32,1.755,0.6171112060546875,-0.9480743408203125,0.4546661376953125,0.3399357714523692,-0.7571142991150337,None
33,1.805,0.2454376220703125,-1.24566650390625,-0.020233154296875,0.21677129267329143,-0.733309643409785,None
34,1.855,0.100128173828125,-1.21966552734375,-0.8253631591796875,0.20678052024431506,-0.7140245675126308,None
35,1.905,0.094757080078125,-1.158538818359375,-0.12396240234375,0.2468648328097993,-0.6925590571939035,None
36,1.955,0.04742431640625,-0.90362548828125,-0.12725830078125,-0.13945466611554494,-0.05189939845567517,None
37,2.005,0.0361175537109375,-0.8274078369140625,-0.193695068359375,-0.22793626265966005,-0.04246403654354739,None
38,2.055,0.01318359375,-0.93719482421875,-0.08087158203125,-0.08597162496502202,-0.014013620764327866,None
39,2.104,-0.1305694580078125,-1.0201873779296875,-0.147613525390625,-0.1432013000371959,0.12566260422863848,None
40,2.154,-0.1943206787109375,-1.043243408203125,-0.3587493896484375,-0.17347491708849547,0.1269823552606535,None
41,2.204,0.0787506103515625,-0.9274444580078125,-0.06195068359375,-0.06664866673679255,-0.08442016438712725,None
42,2.254,0.05694580078125,-0.8964385986328125,0.0063934326171875,0.007131854908028451,-0.06339509422137249,None
43,2.304,-0.0130615234375,-0.9820556640625,-0.3330535888671875,-0.32117192780665027,0.012594555586752449,None
44,2.354,-0.2056732177734375,-1.1588287353515625,-0.747344970703125,-0.2623459113886293,0.02210412834459432,None
45,2.403,-0.2750244140625,-1.240264892578125,-0.435516357421875,-0.16223398121401228,0.0028365971022784606,None
46,2.453,0.088897705078125,-1.693603515625,-0.5419921875,-0.021157827666707665,-0.02623515585606231,None
47,2.503,1.4221343994140625,-1.5703582763671875,-0.117767333984375,0.22672045666219512,-0.05224877326211407,None
48,2.613,2.1492919921875,1.72821044921875,0.0348358154296875,0.4638853975317288,0.12964014948368366,None
49,2.762,-1.9902801513671875,1.1248016357421875,1.8384246826171875,0.3928516186562794,-0.07979792135373209,None
50,2.812,-1.0763397216796875,0.4892578125,-0.0757598876953125,0.2384121698824045,-0.26616107178294324,None
51,2.862,0.17889404296875,-0.11920166015625,0.488616943359375,0.10609315803265543,-0.4378080353600283,Straight
52,2.912,1.0361480712890625,-0.3479156494140625,0.904083251953125,-0.08472331847054786,-0.5722210364834752,None
53,2.962,1.475372314453125,-0.4669952392578125,0.4373321533203125,-0.28482972655463634,-0.6472223567344134,None
54,3.011,1.049835205078125,-0.7206573486328125,0.58050537109375,-0.45605378619118175,-0.6282054308941426,None
55,3.061,0.679168701171875,-0.865142822265625,0.4175872802734375,-0.6034136863968316,-0.6159335686653604,None
56,3.111,0.305999755859375,-1.4916839599609375,-0.2977752685546875,-0.7283695444946756,-0.5765752780535623,None
57,3.19,-0.1317138671875,-2.2217559814453125,-0.7028350830078125,-0.5242663252307476,-0.5979073653698739,None
58,3.239,1.1493377685546875,-0.7115478515625,0.4608917236328125,-0.15114791929793214,-0.5921003328187635,None
59,3.52,-2.1314697265625,1.4629669189453125,-0.074005126953125,-0.4827747564065426,-0.7476438425946317,None
60,3.57,-0.7758636474609375,0.2161102294921875,0.756378173828125,-0.6215778435614004,-0.8545870837021589,Straight
61,3.62,0.08294677734375,-0.09515380859375,0.628082275390625,-0.7682008910514773,-0.9322871425144466,None
62,3.669,0.94134521484375,-0.3472900390625,0.504974365234375,-0.9078004758246018,-0.9836588641621976,None
63,3.719,1.4486846923828125,-0.3655242919921875,0.3475799560546875,-0.9772784857806083,-0.9996493798287397,None
64,3.769,1.2454376220703125,-0.859527587890625,0.61822509765625,-0.9823055509114342,-0.9994297434203893,None
65,3.819,0.660186767578125,-1.0134735107421875,0.61126708984375,-0.9796568523295126,-0.9989586667532382,None
66,3.869,0.4499053955078125,-0.83160400390625,0.128692626953125,0.1529319005095562,-0.4714886466128193,None
67,3.919,0.2466583251953125,-0.738250732421875,0.2706756591796875,0.3442364028631143,-0.299310937016155,None
68,3.968,0.0343017578125,-0.492523193359375,0.6716766357421875,0.8064277099324861,-0.041148460599648905,None
69,4.018,0.315948486328125,-0.2967987060546875,0.7423248291015625,0.8150547751805006,-0.030486574128117533,None
70,4.068,-0.0042877197265625,-0.929412841796875,0.41046142578125,0.4039914368497304,0.004220096018040868,None
71,4.128,-0.8003387451171875,-1.992340087890625,0.2806396484375,0.36248341788901156,0.024410210003626198,None
72,4.178,-0.110198974609375,-0.9287567138671875,0.4516754150390625,0.4373465659904158,0.10610074952057338,None
73,4.228,0.57080078125,-0.1517333984375,0.6121826171875,0.4093211525434967,0.03757778305179606,None
74,4.277,0.4426727294921875,-0.4787139892578125,0.77142333984375,0.424251777785915,0.02803609884571207,None
75,4.327,0.1198577880859375,-1.24407958984375,0.40631103515625,0.4272461404335608,0.05833773416519185,None
76,4.386,-0.6582489013671875,-2.0738067626953125,0.7359466552734375,0.5241212616128593,0.011929218813791557,None
77,4.436,1.212310791015625,-0.746978759765625,0.7254180908203125,0.6111086229128319,-0.06187193014596688,None
78,4.517,2.796356201171875,1.3749847412109375,1.0413665771484375,0.7468305389131183,-0.024351265096833528,None
79,4.566,-2.319000244140625,2.0447540283203125,1.3492431640625,0.8879830755671283,0.23753081776723417,None
80,4.656,-0.42254638671875,2.474273681640625,0.0466156005859375,0.5992213204759691,-0.1065364061786166,None
81,4.706,0.753692626953125,-0.8150787353515625,0.6986541748046875,0.6651476058910673,-0.13553886462010842,None
82,5.003,-2.428466796875,0.9908447265625,1.0030059814453125,0.5532573555809115,-0.24213316967887888,Straight
83,5.055,-1.3033905029296875,0.7214813232421875,0.205780029296875,0.549434277649369,-0.386719772398308,Straight
84,5.105,-1.7183837890625,0.2991485595703125,1.7424774169921875,0.5317766279623276,-0.517642615391732,None
85,5.155,-0.3500518798828125,0.5718536376953125,0.938751220703125,0.4079096356992091,-0.6329987576418216,None
86,5.204,0.3398284912109375,-0.2418670654296875,0.3124542236328125,0.2310515444597566,-0.6945391119423923,None
87,5.254,1.1377716064453125,-0.0834808349609375,1.0522308349609375,0.13277757414301455,-0.7713699255002945,None
88,5.304,1.0874786376953125,-0.561920166015625,0.0792694091796875,0.013910251533712732,-0.7639403768561202,None
89,5.354,0.9661865234375,-0.6812286376953125,1.30377197265625,-0.02548808843521206,-0.7581475786789215,None
90,5.404,0.455902099609375,-0.571868896484375,0.5526580810546875,0.6949255506122073,-0.4973377022376422,None
91,5.454,0.7244415283203125,-0.2327117919921875,-0.217742919921875,0.5477825497551727,-0.5182474075087841,None
92,5.503,0.9075469970703125,-0.38470458984375,0.4387054443359375,0.5169753225884104,-0.4686260435513587,None
93,5.553,0.6618804931640625,-0.617584228515625,0.630828857421875,0.5365542372064372,-0.38216374280266613,None
94,5.603,0.1278228759765625,-1.251953125,0.2932586669921875,0.4715241157590304,-0.296988745193777,None
95,5.653,-0.4141082763671875,-1.7307586669921875,-0.356781005859375,0.3804623718966179,-0.26370019417106316,None
96,5.703,0.0527496337890625,-1.4258575439453125,-0.2253265380859375,0.3144896638829849,-0.26347513871889305,None
97,5.753,-0.5126190185546875,-1.877105712890625,-0.1982574462890625,0.4162825715288605,-0.25261643860744676,None
98,5.803,0.3863525390625,-1.64892578125,0.498779296875,0.5382124852591172,-0.30769838265513627,None
99,5.852,1.66973876953125,-0.8203887939453125,0.72991943359375,0.7239695251118106,-0.33622452472733416,None
100,5.962,2.199249267578125,1.2821807861328125,0.564910888671875,0.8536123179721105,-0.24000217190066503,None
101,6.151,-2.1416168212890625,1.955230712890625,-0.347137451171875,0.6413782338166959,-0.4985483476558965,None
102,6.201,-0.1844940185546875,0.2836761474609375,1.28271484375,0.5942413288199995,-0.6565420144686297,None
103,6.251,0.2880096435546875,-0.493743896484375,0.40765380859375,0.636675725814055,-0.4102242758571344,Straight
104,6.301,0.9974212646484375,-0.36273193359375,0.8855438232421875,0.5502458503571205,-0.5563971800983117,None
105,6.351,1.2718353271484375,-0.68145751953125,0.76776123046875,0.40596450843837106,-0.6269337298204997,None
106,6.401,0.9304656982421875,-0.467681884765625,-0.083465576171875,0.29809162632346486,-0.6763317299854663,None
107,6.45,1.1192169189453125,-0.7029876708984375,0.9559478759765625,0.29297709864989774,-0.6718772700912533,None
108,6.5,0.57244873046875,-0.597076416015625,0.378509521484375,0.5354166170543139,-0.6293050091359473,None
109,6.55,0.437255859375,-0.6541900634765625,0.6838836669921875,0.7226204972976552,-0.41942082942496095,None
110,6.6,0.202239990234375,-1.1175537109375,0.31964111328125,0.6962224903424444,-0.33955885932046403,None
111,6.65,-0.1131591796875,-1.5194549560546875,0.337799072265625,0.7175234869169613,-0.2946069066207267,None
112,6.7,0.258636474609375,-0.9225311279296875,0.44390869140625,0.4335991603312256,-0.24493458451443562,None
113,6.749,0.72216796875,-0.714935302734375,0.42254638671875,0.37927362854176727,-0.27646701338144203,None
114,6.839,0.2765655517578125,-2.05609130859375,0.475189208984375,0.5058225774060103,-0.3817183584232741,None
115,6.889,1.46820068359375,0.024383544921875,0.9359588623046875,0.682302987328611,-0.4841302603701379,None
116,7.168,-2.255767822265625,1.794952392578125,0.95062255859375,0.8114818496413105,-0.6346321026966704,None
117,7.218,-0.550689697265625,0.173248291015625,0.5736541748046875,0.5822936284890896,-0.7948579888741616,Straight
118,7.268,0.4589080810546875,-0.26910400390625,1.266632080078125,0.5556634227500602,-0.8734747201625349,None
119,7.318,0.7296142578125,-0.6011810302734375,0.6427459716796875,0.45714713844551247,-0.9077972480683123,None
120,7.367,1.1132049560546875,-0.7548370361328125,0.54339599609375,0.3202337126769436,-0.9385729449667095,None
121,7.417,0.85833740234375,-0.785980224609375,0.5066986083984375,0.18684437556027053,-0.9561894465882836,None
122,7.467,0.7010650634765625,-0.7037811279296875,0.335235595703125,0.4300399497723803,-0.668687681887016,None
123,7.517,0.6248931884765625,-0.6938018798828125,0.70343017578125,0.4218803744118643,-0.675073419905185,None
124,7.567,0.621063232421875,-0.71783447265625,0.4635162353515625,0.5424550718557865,-0.5879390329343236,None
125,7.617,0.5001983642578125,-0.8114166259765625,0.590087890625,0.5313361531541881,-0.5614650690776842,None
126,7.667,0.4959869384765625,-0.6257171630859375,0.494232177734375,0.6198335136141897,-0.5281867988864603,None
127,7.716,0.512176513671875,-0.4625701904296875,0.4557952880859375,0.7018712635252896,-0.6192659850548005,None
128,7.766,-0.343841552734375,-1.1259613037109375,0.061126708984375,0.6847969086888328,-0.5764608223957821,None
129,7.816,-0.4865570068359375,-1.4083099365234375,0.4593658447265625,0.7315990491635403,-0.5430708595474745,None
130,7.866,0.0077056884765625,-1.0636138916015625,0.7117767333984375,0.7478841997039819,-0.5501794183769709,None
131,7.916,0.6189727783203125,-0.6215362548828125,0.477294921875,0.6090612727294608,-0.6198271608349477,None
132,7.966,0.5540313720703125,-0.542755126953125,0.5174560546875,0.6900371616121941,-0.5942249080037434,None
133,8.015,0.4417724609375,-0.54644775390625,0.54583740234375,0.7067115508385621,-0.49649688420150756,None
134,8.065,-0.307861328125,-1.1947021484375,0.0569000244140625,0.6821802956289152,-0.4607594520004862,None
135,8.115,-0.713592529296875,-1.5553741455078125,0.411651611328125,0.7183075587712577,-0.4294750471095839,None
136,8.165,-0.0067901611328125,-0.8406829833984375,0.8776397705078125,0.7511073289438578,-0.4669641317328482,None
137,8.215,0.4772796630859375,-0.35064697265625,0.4344940185546875,0.7145083647259215,-0.5283178977966548,None
138,8.265,0.560638427734375,-0.33746337890625,0.635955810546875,0.7167696386159211,-0.5430011314549251,None
139,8.314,0.112457275390625,-0.841583251953125,0.3415374755859375,0.37604084742842403,-0.12287977521931734,None
140,8.364,-0.0997467041015625,-1.1360626220703125,0.3691253662109375,0.3637895504289266,-0.07249269750733325,None
141,8.414,0.2507171630859375,-1.034637451171875,0.3931732177734375,0.3479826670448479,-0.058990061547181595,None
142,8.464,-0.0363616943359375,-1.07391357421875,0.3869781494140625,0.33874701674173097,-0.04733978551925025,None
143,8.514,-0.2916259765625,-1.0128021240234375,0.79876708984375,0.4009445952220087,-0.049950103987530727,None
144,8.564,0.074127197265625,-0.503631591796875,0.7093353271484375,0.8153810803017641,-0.08490156475354817,None
145,8.614,0.681732177734375,-0.204315185546875,0.3228302001953125,0.7900102592414259,-0.1251366014927259,None
146,8.663,-0.0820159912109375,-0.937103271484375,0.4408721923828125,0.42570408166577345,0.07894706873242713,None
147,8.713,-0.5187835693359375,-1.560882568359375,0.7125701904296875,0.46592968482439256,0.15178343479630557,None
148,8.763,-0.2633209228515625,-1.224853515625,0.4091339111328125,0.442633652684968,0.1386169522867021,None
149,8.813,0.11138916015625,-0.5428619384765625,0.779632568359375,0.8206540286884834,-0.11645232076197792,None
150,8.863,0.47515869140625,-0.13043212890625,0.446136474609375,0.8502536443033856,-0.15908520517942484,None
151,8.913,0.46905517578125,-0.08929443359375,0.3140869140625,0.8727527142517028,-0.13437450938764325,None
152,8.962,0.1732635498046875,-0.2229461669921875,0.3586578369140625,0.9074333361137822,-0.047739444817849086,None
153,9.012,-0.38690185546875,-0.681640625,0.730072021484375,0.7309353646599503,0.3612070613991169,None
154,9.062,-0.9865570068359375,-1.30224609375,1.050079345703125,0.7605043584527627,0.44275906776170726,None
155,9.112,-0.8958740234375,-1.4151458740234375,1.964599609375,0.7808501144127633,0.4624120014026363,None
156,9.162,-0.77056884765625,-1.0504913330078125,1.2469940185546875,0.6920870051801358,0.40971190436792,None
157,9.212,-0.3301239013671875,-0.6758880615234375,0.788787841796875,0.759359246633747,0.3028796390197396,None
158,9.261,-0.18682861328125,-0.4805450439453125,0.192901611328125,0.3725284535109061,0.339385879226076,None
159,9.311,0.2122344970703125,-0.372802734375,0.28643798828125,0.6092652081186334,-0.4114492952849504,None
160,9.361,0.3822784423828125,-0.3487396240234375,0.0513153076171875,0.14557748703461754,-0.735165269156217,None
161,9.411,0.2923583984375,-0.6322479248046875,-0.0032501220703125,-0.005140513713805908,-0.4197063937489772,None
162,9.461,0.570556640625,-0.8101806640625,-0.1241912841796875,-0.15151857845960673,-0.5713138293791659,None
163,9.511,0.694580078125,-0.7687835693359375,-0.0294647216796875,-0.03829830148360046,-0.6701189328851869,None
164,9.56,0.4276123046875,-0.816162109375,0.1391754150390625,0.1680977271364909,-0.45888580423183783,None
165,9.61,0.3278350830078125,-0.604583740234375,0.1001434326171875,0.16341370299823935,-0.4717046438329425,None
166,9.66,0.3060760498046875,-0.8155975341796875,0.2599639892578125,0.30368700410809746,-0.33668021633830403,None
167,9.71,-0.0921478271484375,-1.1822052001953125,-0.029815673828125,0.25793434395939785,-0.2540288106846333,None
168,9.76,-0.615447998046875,-1.7688446044921875,-0.41522216796875,0.1891446051797082,-0.17153586374774776,None
169,9.81,-0.574981689453125,-1.58612060546875,-0.519287109375,0.14565768468552445,-0.1652124131766404,None
170,9.86,-0.18426513671875,-1.28594970703125,0.0594635009765625,0.1782994420901911,-0.2176381033054206,None
171,9.909,0.185150146484375,-1.0587005615234375,-0.1062469482421875,-0.09985442149585819,-0.17143415457938344,None
172,9.959,0.2333984375,-0.796173095703125,-0.1441802978515625,-0.17819336477031925,-0.2771580820256815,None
173,10.009,0.3436126708984375,-0.5764312744140625,0.1638641357421875,0.27343960201010126,-0.49741814190078043,None
174,10.059,0.4124603271484375,-0.435455322265625,0.2083892822265625,0.4316713437230398,-0.6495873587732061,None
175,10.109,0.62939453125,-0.55255126953125,0.2677764892578125,0.43610582566355055,-0.7157968529679182,None
176,10.159,0.6235504150390625,-0.57318115234375,0.1228790283203125,0.2096179701051855,-0.7285884491957708,None
177,10.208,0.5157012939453125,-0.566009521484375,0.1434326171875,0.2456456848105022,-0.6619788562299348,None
178,10.258,0.3540191650390625,-0.539276123046875,0.2506561279296875,0.4214957455144096,-0.5115281448848039,None
179,10.308,0.140472412109375,-0.766754150390625,0.228179931640625,0.2852298151208142,-0.17294752027073007,None
180,10.358,0.0433197021484375,-1.2534332275390625,0.0787811279296875,0.27546531018636716,-0.09003527765021628,None
181,10.408,-0.1744384765625,-1.88336181640625,-0.171112060546875,0.2483412422944333,0.0043349719617296395,None
182,10.458,0.1114349365234375,-1.2625732421875,-0.0727386474609375,0.2555439107140303,0.006915160735141984,None
183,10.507,0.3735504150390625,-0.5429534912109375,0.27069091796875,0.4461770780384196,-0.5243041460306651,None
184,10.557,0.5231781005859375,-0.01287841796875,0.3168792724609375,0.5349546792439367,-0.5366780849761305,None
185,10.607,0.3844451904296875,-0.1444244384765625,0.5338897705078125,0.612695253012974,-0.5001038311037591,None
186,10.657,-0.510284423828125,-2.1225128173828125,-0.2386627197265625,0.5849883899034615,-0.38944058253054264,None
187,10.737,1.0126190185546875,-2.03607177734375,0.5641326904296875,0.7298880138607096,-0.4469228948330092,None
188,10.787,1.5677642822265625,-0.4802398681640625,0.550018310546875,0.9033964846923386,-0.47716163559270675,None
189,10.976,-1.9119873046875,-1.6269683837890625,-1.7174072265625,0.9898294318960177,-0.4469301011077389,None
190,11.036,-2.1597137451171875,1.3602294921875,0.735137939453125,0.9366078663055261,-0.6199542843253565,None
191,11.086,-1.4310302734375,0.0028228759765625,1.0944976806640625,0.9140767739500543,-0.7291124488801757,Straight
192,11.135,-0.21722412109375,-0.170623779296875,0.973052978515625,0.8454347636932799,-0.8064996501401072,None
193,11.185,0.3210296630859375,-0.4794464111328125,0.2933349609375,0.5218902842593712,-0.4959655010368753,None
194,11.235,0.929656982421875,-0.5243072509765625,0.811004638671875,0.40779090513218363,-0.611706168723683,None
195,11.285,0.9042510986328125,-0.436065673828125,0.114410400390625,0.27934337470876813,-0.6926913482645694,None
196,11.335,1.1909332275390625,-0.4039459228515625,0.2447509765625,0.24247120501675443,-0.7295325152175207,None
197,11.385,1.02496337890625,-0.459686279296875,0.5750274658203125,0.23550456706150744,-0.7051421786145972,None
198,11.434,0.801910400390625,-0.273834228515625,0.208221435546875,0.23561072293441412,-0.6519087539491836,None
199,11.484,0.3264617919921875,-0.8589324951171875,0.429779052734375,0.44747412383901225,-0.3218204384805709,None
200,11.534,-0.44256591796875,-1.70794677734375,0.085784912109375,0.4679405840563681,-0.2129742019194215,None
201,11.584,-0.047821044921875,-1.23760986328125,0.4401092529296875,0.4908423400312036,-0.2151214409741635,None
202,11.634,0.5359954833984375,-0.637664794921875,0.2375640869140625,0.34911249799052096,-0.6187722836534187,None
203,11.684,0.640655517578125,-0.7680816650390625,0.149169921875,0.1906488570558109,-0.6335239751778007,None
204,11.734,-0.2978973388671875,-1.9717559814453125,0.1167144775390625,0.20686386619854993,-0.5890036127584072,None
205,11.783,0.4921722412109375,-1.76068115234375,0.2170562744140625,0.25203695995041975,-0.6274622310780865,None
206,11.833,1.283050537109375,-1.115020751953125,0.5027008056640625,0.41585482651781613,-0.6503885450266569,None
207,11.923,2.0206451416015625,-0.27203369140625,0.340484619140625,0.646349545909669,-0.617409474340417,None
208,12.111,-2.076202392578125,1.19317626953125,0.6644134521484375,0.416059607420344,-0.7798782114188907,None
209,12.161,-1.2307586669921875,0.34552001953125,0.287933349609375,0.45128923180498887,-0.8574810243236248,None
210,12.211,-0.70794677734375,-0.0998382568359375,0.8836822509765625,0.4858289457038235,-0.9192756138708498,Straight
211,12.261,0.29901123046875,-0.4639892578125,0.603485107421875,0.7927700173592491,-0.365603875407193,None
212,12.31,0.721771240234375,-0.5869293212890625,0.6382904052734375,0.738492641599922,-0.4335968106364652,None
213,12.36,0.8223419189453125,-0.710296630859375,0.5826873779296875,0.6699472649911967,-0.47886880456804687,None
214,12.41,0.9669647216796875,-0.6692047119140625,0.3191070556640625,0.655096135662699,-0.4960714448967307,None
215,12.46,0.869720458984375,-0.5773162841796875,0.6696319580078125,0.6080487546709756,-0.4884977036349981,None
216,12.51,0.71380615234375,-0.449920654296875,0.4875335693359375,0.5601332969882394,-0.4548375611148942,None
217,12.56,0.658843994140625,-0.255615234375,0.4739837646484375,0.5235567778394703,-0.38624473685629934,None
218,12.609,0.1322784423828125,-0.7241668701171875,0.3287506103515625,0.41336923398572667,-0.16407219861963052,None
219,12.659,-0.306732177734375,-1.3765716552734375,0.358673095703125,0.4131958042387766,-0.08749860083844567,None
220,12.709,-0.2431488037109375,-1.396759033203125,0.31170654296875,0.3880505818194533,-0.04188294448123994,None
221,12.759,0.0174407958984375,-1.242095947265625,0.2792816162109375,0.3626130830387324,0.0038202278452971125,None
222,12.809,0.1278839111328125,-0.9452972412109375,0.1962890625,0.20331108423378355,-0.1313118685398117,None
223,12.859,0.082611083984375,-0.85791015625,0.418731689453125,0.4386257948869066,-0.08621376602547276,None
224,12.909,-0.535797119140625,-1.4212493896484375,0.1475067138671875,0.4512492034642945,-0.09507162702517934,None
225,12.958,-0.404449462890625,-1.9823455810546875,0.5395050048828125,0.5011836016391924,-0.1690026175017131,None
226,13.008,0.932373046875,-1.020111083984375,0.4491729736328125,0.6345467025992202,-0.21779604035150898,None
227,13.239,-2.602386474609375,-0.3383331298828125,2.2076568603515625,0.7191676432004741,-0.23176295819511292,None
228,13.289,-1.63232421875,0.3397216796875,0.336761474609375,0.6106691885046549,-0.33971907413857244,None
229,13.338,-0.2485198974609375,-0.2902679443359375,0.9249114990234375,0.5605600059049343,-0.4477283547212587,Straight
230,13.388,0.36077880859375,-0.2903289794921875,0.835968017578125,0.4441067494531007,-0.5609893595427325,None
231,13.438,0.608428955078125,-0.48004150390625,0.81597900390625,0.32435178049226837,-0.6536228826498197,None
232,13.488,0.8310546875,-0.685516357421875,0.4782562255859375,0.1916277456337542,-0.7232323720518525,None
233,13.538,0.54193115234375,-0.69970703125,0.3524322509765625,0.4498448576440947,-0.5688840012829344,None
234,13.588,0.6151580810546875,-0.808685302734375,0.4432373046875,0.4442657033162888,-0.579227313947271,None
235,13.637,0.5278472900390625,-0.796295166015625,0.315643310546875,0.3684956711126668,-0.5246204493199451,None
236,13.687,0.4337921142578125,-0.879058837890625,0.45086669921875,0.456370579840037,-0.40203855425384455,None
237,13.737,0.3993072509765625,-0.84503173828125,0.417877197265625,0.44327280239203015,-0.3900284164185323,None
238,13.787,0.150787353515625,-1.1312408447265625,0.1515960693359375,0.42996210150434694,-0.35518436286750865,None
239,13.837,0.116241455078125,-1.07879638671875,0.2895355224609375,0.4483505101869292,-0.3376062695893548,None
240,13.887,0.25103759765625,-0.9641265869140625,0.3228759765625,0.31755560692966533,-0.23970290520453139,None
241,13.936,0.0731658935546875,-1.3567047119140625,0.22686767578125,0.29564496836770854,-0.2587880968449251,None
242,13.986,0.0288543701171875,-1.8832855224609375,0.2076416015625,0.2815320186580571,-0.31067937677373897,None
243,14.036,1.0450286865234375,-0.9590606689453125,-0.01324462890625,0.3222820048260842,-0.40955843513951207,None
244,14.086,1.879180908203125,-0.233642578125,0.88641357421875,0.48053601034370197,-0.45804097479531003,None
245,14.295,-5.251129150390625,-3.09649658203125,-1.9853515625,0.4402789009204323,-0.10594553579585908,None
246,14.345,1.1681976318359375,2.4067840576171875,1.5789337158203125,0.5196642041671279,-0.2904270782233041,None
247,14.395,-1.8247833251953125,-0.9814453125,0.0107574462890625,0.4411956742621267,-0.2680914213349635,None
248,14.454,-2.1054840087890625,-0.256195068359375,1.0050048828125,0.4213785808847862,-0.3914277681484645,None
249,14.503,-0.39208984375,-0.0303802490234375,1.2597198486328125,0.34811984389545947,-0.4795709018696433,Straight
250,14.553,0.4347076416015625,-0.312042236328125,0.7391204833984375,0.2402191627135547,-0.5411209574027562,None
251,14.603,0.7624664306640625,-0.59344482421875,0.85687255859375,0.1591017076746399,-0.5566808898729486,None
252,14.653,0.6772613525390625,-0.848297119140625,0.593475341796875,0.07993668911582284,-0.5755461589943901,None
253,14.703,0.873565673828125,-0.732452392578125,0.4555511474609375,0.02711473828046232,-0.5656282742972358,None
254,14.753,0.6484527587890625,-0.7156829833984375,0.2032623291015625,0.2732065696441254,-0.6570477417798718,None
255,14.802,0.4055023193359375,-0.763580322265625,0.5831146240234375,0.6069247295487354,-0.3888452266545043,None
256,14.852,0.3108673095703125,-0.766876220703125,0.648956298828125,0.645977646277405,-0.29561106058522457,None
257,14.902,-0.1754913330078125,-1.1098175048828125,0.3592376708984375,0.6463796926700729,-0.23102849497854505,None
258,14.952,-0.3999481201171875,-1.232696533203125,0.49346923828125,0.6338321920906792,-0.24119014226485333,None
259,15.002,-0.0356903076171875,-0.91607666015625,0.4292755126953125,0.4243241274011022,0.03525671237783086,None
260,15.052,0.1109771728515625,-0.6321258544921875,0.4217681884765625,0.5550198840913714,-0.1445060065740802,None
261,15.102,0.1769561767578125,-0.737457275390625,0.338470458984375,0.41713252117439187,-0.21307359827193986,None
262,15.151,-0.341827392578125,-1.083953857421875,0.4683380126953125,0.4299876116157984,-0.19385502835045768,None
263,15.201,-0.45947265625,-1.223724365234375,0.437591552734375,0.4566430130805796,-0.19197256513774963,None
264,15.251,-0.2411346435546875,-0.9799652099609375,0.5764923095703125,0.4828945829732556,-0.19008939534202512,None
265,15.301,0.33306884765625,-0.6527557373046875,0.6183929443359375,0.687740411609618,-0.34735500351214,None
266,15.351,0.3670806884765625,-0.463134765625,0.2806854248046875,0.518298593826873,-0.5610819328054847,None
267,15.401,0.2659759521484375,-0.5953369140625,0.5445404052734375,0.6749260586566221,-0.3130876774731566,None
268,15.45,-0.1956939697265625,-1.744598388671875,0.0576629638671875,0.590961710166848,-0.3272943766425021,None
269,15.531,0.2031402587890625,-1.967864990234375,0.1761322021484375,0.6139069307749306,-0.4573358673315357,None
270,15.581,1.2214202880859375,-0.6174468994140625,0.261383056640625,0.6870670978692488,-0.5652417576658234,None
271,15.89,-2.44549560546875,1.48248291015625,0.613311767578125,0.6934059266079291,-0.6261042234296686,None
272,15.94,-1.7861480712890625,0.256805419921875,0.34716796875,0.6323290867060696,-0.7821832444939922,Straight
273,15.99,-0.25372314453125,-0.050689697265625,0.8351287841796875,0.645475203001241,-0.8609370067628533,None
274,16.04,0.4621124267578125,-0.39691162109375,0.190155029296875,0.43206143701434224,-0.724134788768003,None
275,16.09,1.332763671875,-0.4127044677734375,0.8163299560546875,0.3690344255968603,-0.7960703219541864,None
276,16.139,1.100616455078125,-0.6674346923828125,0.544342041015625,0.3008642906000923,-0.809874859405193,None
277,16.189,0.689239501953125,-0.893707275390625,1.0153350830078125,0.26346783397124646,-0.7717872054210396,None
278,16.239,0.56134033203125,-0.3849029541015625,-0.0120086669921875,-0.031184033705813685,-0.8246115670089698,None
279,16.289,1.038909912109375,-0.2491455078125,0.4832305908203125,-0.11176836782170813,-0.8096507901640616,None
280,16.339,0.6990203857421875,-0.5736236572265625,0.626617431640625,-0.12577762723646846,-0.7648192760562695,None
281,16.389,-0.4074859619140625,-1.977447509765625,0.4424591064453125,-0.18957681921092212,-0.6738427404085402,None
282,16.438,0.1640625,-1.1741790771484375,0.5814208984375,-0.20704514179393352,-0.6494105687754587,None
283,16.488,0.7393035888671875,-0.6847686767578125,0.0888671875,0.12869770411360779,-0.7308114550828247,None
284,16.538,0.1070556640625,-2.005584716796875,0.1805419921875,0.10808265707494483,-0.7420660313223809,None
285,16.588,1.025421142578125,-1.550262451171875,0.0505523681640625,0.11053783086406455,-0.7890243994208759,None
286,16.907,-1.93243408203125,2.1750335693359375,-0.190948486328125,-0.22764975970366774,-0.9354298858106112,None
287,16.957,-0.8961334228515625,0.2107086181640625,0.589263916015625,-0.2593547648437176,-0.9817427647414717,Straight
288,17.007,-0.29248046875,-0.512237548828125,0.558380126953125,0.7368983077847125,0.3600948259956412,None
289,17.056,0.701171875,-0.6081390380859375,0.828826904296875,0.612302780414332,0.276584510507417,None
290,17.106,0.571044921875,-0.9779510498046875,0.57025146484375,0.4300796596893233,0.21864968396293233,None
291,17.156,0.8281402587890625,-1.0255889892578125,0.0668792724609375,0.23935294119924605,0.18113958195302082,None
292,17.206,0.29364013671875,-1.3390655517578125,-0.2675628662109375,0.23179836980333082,0.19385776721029332,None
293,17.256,0.3635101318359375,-1.170166015625,0.0958404541015625,0.2640098488301822,0.1764196818883183,None
294,17.306,0.2381591796875,-0.968048095703125,-0.04595947265625,-0.04742301922748007,-0.23864301970157112,None
295,17.356,0.170318603515625,-1.0689697265625,0.10791015625,0.1004373588297422,-0.15656893864110583,None
296,17.405,-0.0258331298828125,-1.0321502685546875,-0.082000732421875,-0.07919696345341752,0.024942081580390876,None
297,17.455,0.172088623046875,-0.7601318359375,0.1353302001953125,0.17527897264216982,-0.21754993639712122,None
298,17.505,0.128265380859375,-0.769287109375,0.1424407958984375,0.18206481613211126,-0.1617862456363713,None
299,17.555,0.112518310546875,-0.9844207763671875,-0.067108154296875,-0.06801234351593326,-0.1133000506906277,None
300,17.605,-0.0416412353515625,-1.211944580078125,-0.3019256591796875,-0.07488123897526218,-0.11463876358608295,None
301,17.655,0.0860595703125,-1.0103759765625,-0.0947265625,-0.09334443497996553,-0.08450059316109573,None
302,17.704,0.2061767578125,-0.9567108154296875,0.261993408203125,0.2641234189819039,-0.20350349262012787,None
303,17.754,0.244842529296875,-0.8378143310546875,0.519866943359375,0.5272488301401091,-0.24100000795573515,None
304,17.804,-0.4167938232421875,-1.36810302734375,-0.1939239501953125,0.5160160346597652,-0.22389073878483598,None
305,17.854,-0.4727783203125,-1.33807373046875,-0.758392333984375,0.579926027323366,-0.28593810258123226,None
306,17.904,0.2409820556640625,-0.6293487548828125,0.39874267578125,0.5352006835847393,-0.3077528420610393,None
307,17.954,0.4557952880859375,-0.491363525390625,0.5510711669921875,0.7463844938148273,-0.5253040296443009,None
308,18.003,0.41546630859375,-0.6371307373046875,0.6430816650390625,0.7103860151378841,-0.4171167978739623,None
309,18.053,0.2183074951171875,-0.841278076171875,0.5141143798828125,0.5214500094539747,-0.21618624526456898,None
310,18.103,-0.3311309814453125,-1.22454833984375,-0.037017822265625,0.5245903996392568,-0.17681236359537758,None
311,18.153,-0.6849822998046875,-1.8356475830078125,0.203948974609375,0.5293645477562543,-0.22113128473785007,None
312,18.203,0.1811981201171875,-1.326507568359375,0.0113525390625,0.5659874797910716,-0.29700458637268906,None
313,18.253,1.333953857421875,-0.30157470703125,1.0751953125,0.7156865405513733,-0.349935699265204,None
314,18.352,2.866363525390625,1.3449554443359375,1.366912841796875,0.8304593514061845,-0.07438213945470888,None
315,18.491,-2.186859130859375,0.8597259521484375,2.84771728515625,0.6021097960412062,-0.32050814663567745,Straight
316,18.541,-0.508941650390625,0.15777587890625,0.21197509765625,0.6415126612081575,-0.432218964907225,None
317,18.59,0.6187896728515625,-0.3092803955078125,0.96282958984375,0.5244450474467142,-0.5348076330909907,None
318,18.64,0.8825836181640625,-0.338897705078125,0.3133544921875,0.519362718394222,-0.5865017981470776,None
319,18.69,0.7693939208984375,-0.476715087890625,0.821807861328125,0.5190617666108719,-0.6142279977979904,None
320,18.74,0.7335052490234375,-0.37921142578125,0.6316375732421875,0.5187607504638168,-0.6412157811996262,None
321,18.79,0.443450927734375,-0.686492919921875,0.6825714111328125,0.7050784722614447,-0.4164592917780672,None
322,18.84,0.5519866943359375,-0.6448974609375,0.65863037109375,0.7145166326641983,-0.5137536998243114,None
323,18.889,0.306671142578125,-0.78802490234375,0.569244384765625,0.5855684916960062,-0.3008503981457014,None
324,18.939,0.2927093505859375,-0.7389068603515625,0.680511474609375,0.6774430976012136,-0.2797547933605268,None
325,18.989,0.0138092041015625,-0.75469970703125,0.48529052734375,0.540857290279213,-0.015388563966706936,None
326,19.039,0.5708160400390625,-0.3624114990234375,0.4845733642578125,0.4795057806861998,-0.010018766094432825,None
327,19.089,0.2818450927734375,-0.7054595947265625,0.41217041015625,0.5044665911279068,-0.326100767687451,None
328,19.188,0.326171875,-2.076904296875,0.924072265625,0.4714292234470623,-0.4510987329543402,None
329,19.509,-2.23675537109375,1.6647186279296875,-0.0529632568359375,0.22274187461493325,-0.7060097112450011,None
330,19.558,-0.3432464599609375,0.860198974609375,0.915130615234375,0.2415723328093751,-0.8103863415515707,Straight
331,19.608,0.2008514404296875,-0.0634613037109375,0.645355224609375,0.12018150345388685,-0.854976073534175,None
332,19.658,1.3263397216796875,-0.353973388671875,0.988922119140625,-0.02021015005658959,-0.8870288162736186,None
333,19.708,1.048095703125,-0.784637451171875,0.675689697265625,-0.11801992115481509,-0.889965886060133,None
334,19.758,0.9626922607421875,-0.8129425048828125,0.9091949462890625,-0.18975086234098695,-0.8857644983449655,None
335,19.808,0.5030059814453125,-0.981475830078125,0.357269287109375,-0.24540972410096384,-0.8620613167553973,None
336,19.858,0.4120635986328125,-0.935791015625,0.4265594482421875,-0.26415458697427774,-0.8471421517276907,None
337,19.907,0.3433837890625,-0.914337158203125,0.5110015869140625,-0.26186293942169625,-0.8291511617430736,None
338,19.957,0.2972869873046875,-0.8165740966796875,0.4634552001953125,0.4936008685255345,-0.30185487699687397,None
339,20.007,0.3965301513671875,-0.770599365234375,0.5485992431640625,0.5799572410659335,-0.38660198439927135,None
340,20.057,0.3271484375,-0.9177703857421875,0.5263671875,0.5750460878109273,-0.3621438284979372,None
341,20.107,0.206146240234375,-1.049468994140625,0.6213531494140625,0.5578932714821989,-0.34854395026302504,None
342,20.157,0.2978515625,-0.9697723388671875,0.705352783203125,0.5237358328764241,-0.3483487803735799,None
343,20.206,0.3498992919921875,-0.7332305908203125,0.5864105224609375,0.6245820695336619,-0.349213078972493,None
344,20.256,0.2575531005859375,-0.8245849609375,0.1339874267578125,0.16038717169836061,-0.2946155809312114,None
345,20.306,0.03131103515625,-0.897918701171875,-0.40802001953125,-0.4136980345716141,-0.03173077415875118,None
346,20.356,0.1125946044921875,-0.937255859375,-0.08367919921875,-0.08892734153586919,-0.11880873978088907,None
347,20.406,-0.1121826171875,-0.9128265380859375,-0.2106475830078125,-0.22485474842704153,0.11889933431793834,None
348,20.456,0.0043792724609375,-0.9035797119140625,-0.4375,-0.4357901443929583,-0.004362115705180804,None
349,20.505,0.0491180419921875,-0.978271484375,-0.358062744140625,-0.3437157519866152,-0.04709763912499868,None
350,20.555,0.0855865478515625,-0.91973876953125,-0.4150238037109375,-0.4113051081905528,-0.0845161995597067,None
351,20.605,-0.037567138671875,-0.891845703125,-0.3420257568359375,-0.3580743602344356,0.039299488491026775,None
352,20.655,-0.0765533447265625,-0.861053466796875,-0.2331390380859375,-0.26134973818726376,0.08550232441454252,None
353,20.705,-0.0118408203125,-0.868316650390625,-0.1275482177734375,-0.1453318148491379,0.013490516262857022,None
354,20.755,-0.1194000244140625,-0.99652099609375,-0.297698974609375,-0.2862385905664041,0.1140543855677052,None
355,20.805,-0.3242950439453125,-1.174163818359375,-0.431915283203125,-0.2734733343209694,0.15993207685984767,None
356,20.854,-0.4262847900390625,-1.2143402099609375,-0.3295745849609375,-0.22442592731466826,0.17774990908238747,None
357,20.904,-0.287628173828125,-0.994415283203125,-0.2743682861328125,-0.2659711830767167,0.26858044469248554,None
358,20.954,-0.177642822265625,-0.879913330078125,-0.1209869384765625,-0.13621707591648452,0.19612079628588547,None
359,21.004,-0.07366943359375,-0.8048248291015625,0.095550537109375,0.11789420457836872,0.09052320497623507,None
360,21.054,-0.0607757568359375,-0.8428955078125,0.2192840576171875,0.2517749778292818,0.0696115143507146,None
361,21.104,-0.04364013671875,-0.8540191650390625,-0.0465850830078125,-0.054467080445412604,0.05095757256583912,None
362,21.153,0.0765533447265625,-0.995635986328125,-0.097686767578125,-0.097646071228048,-0.07629839475082477,None
363,21.203,0.0339813232421875,-1.1601715087890625,-0.1907196044921875,-0.12940030226771027,-0.07581944512079995,None
364,21.253,0.1529388427734375,-1.1495819091796875,-0.3828277587890625,-0.14982011754442237,-0.08739764424341016,None
365,21.303,0.135894775390625,-1.0419464111328125,-0.3542938232421875,-0.13641880705254997,-0.10094762742126653,None
366,21.353,0.1910552978515625,-0.736114501953125,-0.09912109375,-0.1334500393789735,-0.24911486722679643,None
367,21.403,0.1692047119140625,-0.599609375,0.115447998046875,0.18906612216851654,-0.2670392827390513,None
368,21.452,0.034637451171875,-0.743316650390625,0.237548828125,0.3044124426386097,-0.04434330216078244,None
369,21.502,-0.2813568115234375,-1.1024322509765625,-0.451019287109375,0.2593564812112203,0.00980198272136878,None
370,21.552,-0.3765106201171875,-1.64227294921875,-0.272064208984375,0.2990846625274968,0.04848489896967748,None
371,21.602,-0.45660400390625,-1.544464111328125,-0.3341217041015625,0.3340814525921797,0.0319729524208734,None
372,21.652,-0.145477294921875,-0.95025634765625,0.191192626953125,0.1972482230122246,0.14842262330016995,None
373,21.702,0.1453857421875,-0.5509490966796875,0.53448486328125,0.696301046403695,-0.18609307500351158,None
374,21.751,0.2158660888671875,-0.4363555908203125,0.357574462890625,0.6338282295329225,-0.35737074283350256,None
375,21.801,-0.7736663818359375,-1.2529449462890625,0.218048095703125,0.7036998006032136,-0.2905281849697433,None
376,21.851,-0.4423675537109375,-1.203826904296875,0.554351806640625,0.7155922088910873,-0.29002456455455033,None
377,21.901,0.2696685791015625,-0.6413116455078125,0.2431640625,0.35453686512368937,-0.3659133366819181,None
378,21.951,0.4683380126953125,-0.5079803466796875,0.51251220703125,0.710239937131641,-0.5444122792598987,None
379,22.001,-0.135498046875,-1.064422607421875,0.1613006591796875,0.14982763197468213,0.12487513728269786,None
380,22.051,-0.221282958984375,-1.2514495849609375,0.177886962890625,0.1587800064369576,0.1301356454541908,None
381,22.1,0.253021240234375,-0.8816680908203125,0.2273712158203125,0.24971734721142613,-0.2677426910434326,None
382,22.15,0.2397613525390625,-0.8227081298828125,0.15350341796875,0.18341771192790965,-0.2754063506475297,None
383,22.2,-0.026336669921875,-1.3212738037109375,0.58880615234375,0.21453142279608992,-0.26330055700904187,None
384,22.25,0.1476287841796875,-1.553955078125,0.8112945556640625,0.2731140056377202,-0.27517604272852436,None
385,22.3,0.995361328125,-1.32415771484375,0.527008056640625,0.3958327093402733,-0.2974928053993883,None
386,22.35,1.71527099609375,-1.221893310546875,0.7658843994140625,0.5654507221804134,-0.3066787207268516,None
387,22.659,0.4825897216796875,1.446563720703125,2.3767547607421875,0.6299799634320706,-0.49796918897500614,Straight
388,22.708,-1.8304443359375,-0.0108642578125,0.9242095947265625,0.5086630717656855,-0.5244088078690842,None
389,22.758,-1.0169219970703125,0.018402099609375,0.7189178466796875,0.3402014081102108,-0.6468900789573723,None
390,22.808,-0.2821197509765625,-0.3670501708984375,0.8067626953125,0.24729015724422612,-0.7306942486998863,None
391,22.858,0.6368865966796875,-0.32000732421875,0.99639892578125,0.08957102164239428,-0.8044300869143066,None
392,22.908,0.6403350830078125,-0.46929931640625,0.5364837646484375,-0.14426477762388584,-0.8339485613157332,None
393,22.958,0.733551025390625,-0.7317657470703125,0.6024627685546875,-0.3241426555615457,-0.8519447987585806,None
394,23.007,0.3321075439453125,-1.0221099853515625,-0.030242919921875,-0.02957577004872334,-0.3088979760777184,None
395,23.057,0.41461181640625,-0.9612579345703125,-0.0513916015625,-0.05338662085724098,-0.39557570622006744,None
396,23.107,0.396087646484375,-0.9059600830078125,-0.1280517578125,-0.1399526318957254,-0.39727202156259156,None
397,23.157,0.248382568359375,-1.02783203125,-0.371795654296875,-0.2895545680646396,-0.38411235082190187,None
398,23.207,0.177215576171875,-1.0161895751953125,-0.4730224609375,-0.3938290506107752,-0.3800743833815192,None
399,23.257,0.074188232421875,-0.9968109130859375,-0.6731414794921875,-0.4392554165961632,-0.3863666908633871,None
400,23.307,0.14837646484375,-0.9432830810546875,-0.4980621337890625,-0.4669186653501054,-0.13777213975815475,None
401,23.356,-0.0225067138671875,-0.9263458251953125,-0.4759063720703125,-0.45696824992390356,0.021606041393203095,None
402,23.406,0.1271209716796875,-0.8428955078125,-0.3508148193359375,-0.3842498429212266,-0.1379060980564816,None
403,23.456,0.1779937744140625,-0.814666748046875,-0.4004974365234375,-0.4411791964453477,-0.1924103108983033,None
404,23.506,0.0826416015625,-0.85919189453125,-0.5031890869140625,-0.5053643159264802,-0.08271443875189952,None
405,23.556,0.1292266845703125,-0.8595733642578125,-0.519195556640625,-0.5170207859496232,-0.12763293180963384,None
406,23.606,0.062835693359375,-0.8702545166015625,-0.6008148193359375,-0.5681425603027058,-0.05931407934231774,None
407,23.655,0.146087646484375,-0.7938079833984375,-0.623382568359375,-0.617623236144299,-0.14324531421081388,None
408,23.705,0.157562255859375,-0.820831298828125,-0.5292816162109375,-0.541919390576135,-0.1592652327402182,None
409,23.755,0.174957275390625,-0.889892578125,-0.5154876708984375,-0.5012450541186245,-0.16771364188327156,None
410,23.805,0.16668701171875,-0.8643341064453125,-0.5238189697265625,-0.5182873281291009,-0.16272843483774602,None
411,23.855,0.060211181640625,-0.95379638671875,-0.511962890625,-0.47293942477661194,-0.05553584951372298,None
412,23.905,0.0217132568359375,-0.9443359375,-0.422576904296875,-0.4084553173042886,-0.0209830269331423,None
413,23.954,0.0048828125,-0.9503173828125,-0.4187774658203125,-0.4032531058115392,-0.0047017514130666994,None
414,24.004,-0.0327911376953125,-0.954345703125,-0.344696044921875,-0.3397065444860702,0.03229962184493745,None
415,24.054,0.0115814208984375,-0.840301513671875,-0.414215087890625,-0.44213777550784056,-0.0123611925247472,None
416,24.104,0.009490966796875,-0.8766326904296875,-0.417022705078125,-0.4295796689225187,-0.00977628192176535,None
417,24.154,0.0875701904296875,-0.84954833984375,-0.3782196044921875,-0.40671538616363573,-0.09375312970265379,None
418,24.204,0.178863525390625,-0.7758636474609375,-0.3627166748046875,-0.42350567741530937,-0.20442948325495577,None
419,24.254,0.13323974609375,-0.8214263916015625,-0.4155426025390625,-0.45140563556713953,-0.14324620345609415,None
420,24.303,0.092315673828125,-0.85894775390625,-0.536712646484375,-0.5299068523497104,-0.09076881564797026,None
421,24.353,0.083465576171875,-0.8696746826171875,-0.52587890625,-0.5174403047498615,-0.08185066625389563,None
422,24.403,0.118438720703125,-0.8937530517578125,-0.57635498046875,-0.5419543023464412,-0.11068520603394179,None
423,24.453,0.138580322265625,-0.8106231689453125,-0.5334625244140625,-0.5497299925835777,-0.14137193997597144,None
424,24.503,0.0367431640625,-0.8389129638671875,-0.538330078125,-0.5400680500428384,-0.036836769296057205,None
425,24.553,0.044036865234375,-0.8118438720703125,-0.6168212890625,-0.6049713227617373,-0.04315062892192857,None
426,24.602,-0.075836181640625,-0.8265533447265625,-0.5496826171875,-0.5537562432014823,0.07617620888129902,None
427,24.652,-0.14398193359375,-0.8113555908203125,-0.5463104248046875,-0.558521090402211,0.14563079606638454,None
428,24.702,-0.1741790771484375,-0.91082763671875,-0.521514892578125,-0.4968871366634078,0.1637146410649762,None
429,24.752,-0.19488525390625,-0.8998565673828125,-0.5954742431640625,-0.5518546079191079,0.17773397194559198,None
430,24.802,-0.0052032470703125,-0.784637451171875,-0.583984375,-0.5970555982782535,0.00531963519702353,None
431,24.852,-0.0697021484375,-0.8560028076171875,-0.52545166015625,-0.5231443835987623,0.06922958560052454,None
432,24.901,-0.0467681884765625,-0.8008575439453125,-0.6557464599609375,-0.6335267428113884,0.04513741480366301,None
433,24.951,-0.000762939453125,-0.8150177001953125,-0.5850830078125,-0.5831686976064032,0.000760443001500704,None
434,25.001,0.0055084228515625,-0.812286376953125,-0.5662841796875,-0.5718913455256672,-0.005562879427266193,None
435,25.051,0.0115203857421875,-0.8515625,-0.5717315673828125,-0.55741280082968,-0.011231154320557112,None
436,25.101,0.0902862548828125,-0.8057098388671875,-0.583221435546875,-0.5863623161735537,-0.09040081127268622,None
437,25.151,0.07049560546875,-0.8267822265625,-0.553741455078125,-0.5564753312360562,-0.07066653975072351,None
438,25.2,-0.001922607421875,-0.862030029296875,-0.519378662109375,-0.5160734827080937,0.001910369004229218,None
