index,time,acc x,acc y,acc z,sin ori x,sin ori y,sin ori z
0,0,-0.0865020751953125,0.026336669921875,-1.0245361328125,-0.9996697658387153,0,-0.08410355918346614
1,0.05,-0.0947113037109375,0.00579833984375,-1.0283050537109375,-0.999984102712089,0.0018146104465240666,-0.0947113037109375
2,0.1,-0.088287353515625,0.0000762939453125,-0.9534149169921875,-0.9999999967982585,-0.009527434620376666,-0.088287353515625
3,0.15,-0.0769805908203125,0.0251922607421875,-1.0104827880859375,-0.9996893695295281,-0.022029018307159424,-0.0769805908203125
4,0.2,-0.07623291015625,0.00384521484375,-1.068511962890625,-0.9999935248739251,0.001166424077004209,-0.07623291015625
5,0.249,-0.0221710205078125,0.0057830810546875,-1.0442657470703125,-0.9999846659629666,0.013291178627859791,-0.0221710205078125
6,0.299,-0.0277252197265625,-0.0026702880859375,-0.9119415283203125,-0.9999957130397036,0.02620349025900331,-0.0277252197265625
7,0.349,-0.119537353515625,0.097930908203125,-1.169830322265625,-0.9965143123376425,0.09522237581445966,-0.119537353515625
8,0.399,0.178436279296875,0.316619873046875,-0.93780517578125,-0.9474584102604167,0.17132739546309833,0.178436279296875
9,0.449,-0.1015167236328125,0.027252197265625,-0.98443603515625,-0.9996170443177589,0.18415810833650897,-0.10151672363281251
10,0.499,0.2230072021484375,0.20733642578125,-1.030975341796875,-0.9803714019922871,0.1720644207840559,0.22300720214843753
11,0.549,-0.1265411376953125,0.1455230712890625,-1.5094451904296875,-0.9794751200612711,0.12449010426743094,0.23635483868415544
12,0.598,-0.052154541015625,0.1221160888671875,-1.4514312744140625,-0.9880912130736043,0.09010030050330933,0.23589123737176032
13,0.648,-0.1151123046875,-0.002471923828125,-0.9445953369140625,-0.9999965759007309,0.051615086312121056,-0.1151123046875
14,0.698,-0.324310302734375,-0.14410400390625,-0.8801727294921875,-0.9868610458778199,0.006058686598436768,-0.324310302734375
15,0.748,-0.2858734130859375,-0.14593505859375,-0.6656646728515625,-0.9768016070574002,-0.06114054471089404,-0.2858734130859375
16,0.798,-0.0950164794921875,-0.1624298095703125,-0.6134185791015625,-0.9666840552836943,-0.05035597353757408,-0.0950164794921875
17,0.848,0.1666412353515625,-0.165069580078125,-0.86749267578125,-0.9823733352826441,-0.002146191551247136,0.1666412353515625
18,0.897,-0.017669677734375,-0.0906982421875,-0.5279388427734375,-0.9855617424305247,0.07617225552595498,-0.017669677734375
19,0.947,0.3834381103515625,-0.016387939453125,-0.775146484375,-0.9997765884694035,0.06928002579187166,0.3834381103515625
20,0.997,-0.1201934814453125,-0.1414947509765625,-0.9567108154296875,-0.98923943506887,0.06117928994045126,-0.1201934814453125
21,1.047,0.2956390380859375,0.011749267578125,-1.28759765625,-0.9916908419367141,0.11946687297100969,-0.1528858500346317
22,1.097,0.100006103515625,-0.1631317138671875,-1.245147705078125,-0.9876784537194497,0.14452205608825416,-0.2332724921741984
23,1.147,0.2691802978515625,-0.1012725830078125,-1.1909332275390625,-0.9765597444172948,0.13788699176174757,-0.2925470176503628
24,1.196,0.200897216796875,-0.0946502685546875,-1.16986083984375,-0.9967429869136807,0.1966999360996295,0.200897216796875
25,1.246,0.2899322509765625,-0.1137542724609375,-0.9964599609375,-0.993546935001696,0.2589847088187096,0.2899322509765625
26,1.296,0.4678955078125,-0.154022216796875,-0.819671630859375,-0.9827996191457482,0.3190038477359679,0.4678955078125
27,1.346,0.420379638671875,-0.248931884765625,-0.673858642578125,-0.9380410349027185,0.33972285797086405,0.420379638671875
28,1.396,0.345245361328125,-0.13330078125,-0.96917724609375,-0.9906734717740956,0.36040398946536906,0.345245361328125
29,1.446,0.412322998046875,-0.1923828125,-0.7272186279296875,-0.9667434413184183,0.35697819893822647,0.41232299804687506
30,1.495,0.3361053466796875,-0.131591796875,-0.8744354248046875,-0.9888654882879991,0.2663741986017112,0.3361053466796875
31,1.545,0.3449249267578125,-0.289306640625,-1.079925537109375,-0.9659389141891699,0.14998511672909184,0.3449249267578125
32,1.595,0.0880889892578125,-0.3519744873046875,-1.2383270263671875,-0.905731795763784,0.015670091966043007,0.3106193049283443
33,1.645,0.0768280029296875,-0.4750213623046875,-0.9525909423828125,-0.894905459795676,-0.08779472697979586,0.0768280029296875
34,1.695,0.13177490234375,-0.566741943359375,-0.74456787109375,-0.7957138820218373,-0.17372509274310888,0.13177490234375
35,1.745,0.13909912109375,-0.579681396484375,-0.697479248046875,-0.769061856605259,-0.3392023341209629,0.13909912109375
36,1.794,0.09747314453125,-0.715728759765625,-0.282562255859375,-0.3672089742507661,-0.4872184682650833,0.09747314453125
37,1.844,-0.073944091796875,-0.81915283203125,-0.240264892578125,-0.28145206228802544,-0.6081475552186306,-0.073944091796875
38,1.894,0.040618896484375,-0.8554229736328125,0.1439056396484375,0.1658963707251075,-0.6929618887187241,0.04061889648437499
39,1.944,0.16827392578125,-0.9840545654296875,-0.051422119140625,-0.052184154432279646,-0.7552239218675099,0.16827392578125
40,1.994,0.1885986328125,-1.240386962890625,0.26348876953125,0.02226326218910365,-0.7603610895704294,0.14942602944163413
41,2.044,0.0552978515625,-1.4082794189453125,0.2294769287109375,0.11410325346190775,-0.7393021565681263,0.12439099954785882
42,2.093,0.2853546142578125,-0.8583831787109375,0.6204986572265625,0.5858350265281411,-0.6980026814606188,0.2853546142578125
43,2.143,0.23638916015625,-0.5937347412109375,0.86773681640625,0.8252983619565114,-0.6703015775182368,0.23638916015625
44,2.193,0.25555419921875,-0.2634735107421875,0.510772705078125,0.8887277918686645,-0.6170926459105257,0.25555419921875
45,2.243,0.2605133056640625,-0.2222747802734375,0.504547119140625,0.9151317053455776,-0.5952943230147995,0.2605133056640625
46,2.293,0.33245849609375,-0.280487060546875,0.614501953125,0.9097139748540207,-0.5407841517915312,0.33245849609375
47,2.343,-0.3135528564453125,-1.044158935546875,0.660400390625,0.9271162953429285,-0.5173560100698241,0.4203327856244986
48,2.392,-1.303680419921875,-1.46759033203125,1.3651580810546875,0.9272588741940938,-0.5314779106433657,0.4112841396847565
49,2.442,0.0765228271484375,-0.4892578125,0.618682861328125,0.7843744400465541,-0.5568658075592148,0.0765228271484375
50,2.492,0.99371337890625,0.28094482421875,0.3993377685546875,0.8178745067331658,-0.5596771787649422,0.99371337890625
51,2.542,0.020050048828125,-1.0210723876953125,0.512969970703125,0.4489166857595865,-0.5220608378546621,0.020050048828125
52,2.607,0.357696533203125,-2.128631591796875,1.7623443603515625,0.528408541067576,-0.525152254498486,-0.08653231581653363
53,2.926,-2.1724700927734375,2.2958984375,-1.743194580078125,0.30426215929273903,-0.6728953850928788,-0.2563617140401861
54,2.975,-0.893768310546875,-0.0948944091796875,1.4577484130859375,0.41012802907258045,-0.7487810649808802,-0.3869098098945952
55,3.025,0.7041168212890625,-0.3090667724609375,0.930206298828125,0.367589546761972,-0.7803896357351504,-0.4796193729125582
56,3.075,1.2187347412109375,-0.119140625,1.228546142578125,0.32006891125929565,-0.8132268030468611,-0.5481624709705841
57,3.125,1.19110107421875,0.1853790283203125,0.740020751953125,0.2816777567998886,-0.8782675994805301,-0.5753666310559364
58,3.175,1.5921783447265625,0.86083984375,0.6458587646484375,0.15655947948951815,-0.8951545568454901,-0.6448441897460769
59,3.225,0.0966033935546875,-0.6855926513671875,1.2377166748046875,0.1609622217627144,-0.9317718910780063,-0.5800268514880061
60,3.275,-0.3826141357421875,-1.427703857421875,0.661773681640625,0.09023621033190612,-0.9392474268848906,-0.523813389298554
61,3.324,0.74688720703125,-0.348846435546875,0.4938507080078125,0.8167761846861938,-0.9553530716493273,0.74688720703125
62,3.374,1.4059295654296875,0.4684295654296875,-0.0420989990234375,0.746190971830115,-0.9490178895192048,0.7033110628148048
63,3.424,0.9471282958984375,0.3426666259765625,0.4852294921875,0.8168475376440552,-0.9310905567530704,0.9471282958984375
64,3.474,0.0655059814453125,-0.1261444091796875,0.462615966796875,0.9647763041271892,-0.9021113879770156,0.0655059814453125
65,3.524,-1.3352203369140625,-2.2207183837890625,0.6470794677734375,0.942628689441256,-0.8608138014297841,0.17582677450888914
66,3.588,-0.3712310791015625,-2.2910919189453125,2.015960693359375,0.896857129538034,-0.8474484607212871,-0.03676979571138688
67,3.638,1.5468902587890625,0.0183868408203125,0.5770263671875,0.9278457910643486,-0.8375011953277787,-0.2676928206686365
68,3.972,-1.92108154296875,2.32257080078125,-1.265594482421875,0.8188078419256283,-0.9519850436268639,-0.42250198719729876
69,4.022,-1.57550048828125,0.3393096923828125,1.371368408203125,0.8829371919837121,-0.994120837547392,-0.5485631176060372
70,4.072,-0.391265869140625,-0.0219268798828125,0.8271484375,0.9996488214730987,-0.9985616449169713,-0.391265869140625
71,4.122,0.77099609375,-0.2934722900390625,1.2478790283203125,0.9940943653237253,-0.9983910040684648,-0.5079924330895079
72,4.172,1.11968994140625,-0.008636474609375,0.6259765625,0.9707262479899249,-0.9848692437992675,-0.5959836606557805
73,4.221,1.1515960693359375,0.2078399658203125,0.2869110107421875,0.9346753260673268,-0.9568078559103708,-0.6635624064731558
74,4.271,1.528411865234375,0.6721038818359375,0.427215576171875,0.8775970574083809,-0.9491670657582527,-0.7156140504135345
75,4.321,0.7982177734375,-0.36553955078125,0.69549560546875,0.8851860029142063,-0.9325244012334831,0.7982177734375
76,4.386,-0.5032196044921875,-2.0613250732421875,0.661102294921875,0.8849328864576707,-0.922855405080848,0.8032590788813267
77,4.436,0.6362762451171875,-0.6406707763671875,0.8060150146484375,0.8101886701873902,-0.9286327537761612,0.7596693498145494
78,4.486,0.9523468017578125,0.2642059326171875,0.0458526611328125,0.17099296058255667,-0.9176146047819284,0.9523468017578125
79,4.535,0.9877471923828125,0.4521484375,0.4716644287109375,0.7218836867968184,-0.9054723186572536,0.9877471923828125
80,4.585,0.3536224365234375,-0.2933197021484375,0.2002105712890625,0.563759383115915,-0.8653854281312345,0.3536224365234375
81,4.68,0.7034149169921875,-2.431854248046875,1.647674560546875,0.4580225512438099,-0.9193913258730464,0.13227619926133177
82,4.929,-5.7761688232421875,-3.2534637451171875,-1.49853515625,0.7454723122005358,-0.9352579486981056,0.004779779021677466
83,4.979,-2.0735931396484375,1.306976318359375,1.8380584716796875,0.5662492681639322,-0.9039592131033857,-0.203949556775666
84,5.029,-1.6798095703125,-0.0762939453125,0.010284423828125,0.658724036459186,-0.8597844365388907,-0.2442547281026533
85,5.098,-2.2104644775390625,-0.3804931640625,0.76806640625,0.6230020883788976,-0.8162140985788874,-0.4026980229603628
86,5.148,-0.206390380859375,0.311859130859375,1.1406707763671875,0.5934121270197977,-0.7483075462885096,-0.5449479793841475
87,5.198,0.8367767333984375,0.160491943359375,0.402313232421875,0.9288212816859024,-0.689916670922464,0.8367767333984375
88,5.248,1.207916259765625,0.2829437255859375,0.6786956787109375,0.9350215937240894,-0.6128558224395806,0.7855428014728287
89,5.298,1.2422637939453125,0.504150390625,0.9762725830078125,0.9700187297679063,-0.5295752777596016,0.7410808246439184
90,5.348,1.6618804931640625,0.71563720703125,-0.1048126220703125,0.9987013452193783,-0.5047434172782079,0.7319757101842678
91,5.398,0.58428955078125,-0.20758056640625,0.3686981201171875,0.8713857407985136,-0.42196742735850906,0.58428955078125
92,5.447,0.507843017578125,-0.703369140625,0.68646240234375,0.6984534376033923,-0.43228393340599547,0.507843017578125
93,5.497,0.025726318359375,-1.4998016357421875,0.6865692138671875,0.7109455859956865,-0.4509598746228457,0.5765327090628544
94,5.547,0.65509033203125,-1.1956787109375,0.7978515625,0.6724325512343722,-0.4837850026075607,0.5519221724073006
95,5.597,0.8715362548828125,-0.2424774169921875,0.3181915283203125,0.7953765557547497,-0.5170809967832145,0.8715362548828125
96,5.647,0.9437255859375,0.3067626953125,0.52301025390625,0.8625752792401971,-0.5316213025912832,0.9437255859375
97,5.697,0.6318817138671875,0.2103424072265625,0.63836669921875,0.9497696181819559,-0.5562121842575014,0.6318817138671875
98,5.746,0.0487060546875,-1.025634765625,0.6272430419921875,0.9726716589673235,-0.5931997635116562,0.7015569639655441
99,5.831,0.3356781005859375,-2.4775543212890625,1.32012939453125,0.9662612445628814,-0.6696693469946473,0.5665278517328095
100,5.881,1.8761138916015625,0.426910400390625,1.0303192138671875,0.9313815865413849,-0.7186162429009496,0.3480064875239526
101,6.105,-2.9834442138671875,-1.1394500732421875,-0.362701416015625,0.9701788330746235,-0.871281932566736,0.6580642211640673
102,6.18,-2.2233123779296875,1.5379638671875,-1.1082000732421875,0.9841092714246129,-0.8118239699904932,0.4822431043284891
103,6.23,-1.813934326171875,0.188507080078125,1.18743896484375,0.9683908304422261,-0.723992069004467,0.4086214120506063
104,6.28,-0.6849365234375,0.06414794921875,0.7264251708984375,0.9961236512047767,-0.6648218485580751,-0.6849365234375
105,6.329,0.219482421875,-0.206329345703125,0.756195068359375,0.9647332669103436,-0.5800265318083883,0.219482421875
106,6.379,0.7890167236328125,-0.2856903076171875,0.2624969482421875,0.6765843701036011,-0.49518793978094217,0.7890167236328125
107,6.429,1.4338226318359375,-0.0551300048828125,0.8171539306640625,0.6252860468893808,-0.38163948323659086,0.7612638019537666
108,6.479,1.2466888427734375,0.176177978515625,0.3386077880859375,0.5091147398675048,-0.2989880590372473,0.7426291124849373
109,6.529,1.527496337890625,0.3409423828125,0.3444976806640625,0.44942187854344834,-0.2225190196450809,0.7769123042992951
110,6.579,0.9159088134765625,-0.1815338134765625,0.5254364013671875,0.9451794234609356,-0.1852003222819877,0.9159088134765625
111,6.628,0.1243438720703125,-1.5193328857421875,0.460845947265625,0.9600375378771397,-0.1544692667129768,0.9416405822231995
112,6.678,0.875213623046875,-1.309906005859375,1.2963409423828125,0.946409646236015,-0.1928457874754048,0.9336692278001185
113,6.728,1.1415863037109375,-0.440216064453125,0.2959747314453125,0.919269420871147,-0.18097850415926045,0.9255011666013369
114,6.778,0.8938751220703125,0.2095947265625,-0.01611328125,-0.07665209251621428,-0.21172860845685693,0.8938751220703125
115,6.828,0.9097747802734375,0.2790374755859375,0.313690185546875,0.7471706498990314,-0.26286688386505946,0.9097747802734375
116,6.878,0.6456756591796875,0.0061798095703125,0.4388275146484375,0.9999008556662489,-0.3131696740764566,0.6456756591796875
117,6.927,0.2288970947265625,-1.646697998046875,0.049957275390625,0.9951109726349956,-0.36427388138949984,0.7240898512322067
118,7.003,0.0542755126953125,-2.5204925537109375,0.8972930908203125,0.9988734926619275,-0.42430492130007996,0.6600805207738685
119,7.062,1.62701416015625,0.49774169921875,0.9903411865234375,0.9994504760983463,-0.48978429025778675,0.49415288855995937
120,7.192,2.2551116943359375,0.8965301513671875,2.164764404296875,0.9821204864796202,-0.6548220704795352,0.6563192558600012
121,7.301,-4.30242919921875,-2.20849609375,-2.3865203857421875,0.9993286130304043,-0.7570045868448556,0.9092843094764351
122,7.351,-2.6338653564453125,0.4161834716796875,1.7890777587890625,0.9874835959870314,-0.6816990436963123,0.8902161931400653
123,7.401,-0.9072265625,1.12188720703125,-0.283966064453125,0.9957034792714469,-0.6375504823346686,0.798541066872819
124,7.451,-2.1609039306640625,-0.323394775390625,1.6064910888671875,0.9810718406762877,-0.5719733383710471,0.743459606172521
125,7.501,-0.6833343505859375,0.0891876220703125,1.1408233642578125,0.9857802084591955,-0.48996913245714047,0.6538320936125472
126,7.55,0.0843048095703125,-0.0127105712890625,0.8685150146484375,0.9998929280458968,-0.40901441314492226,0.0843048095703125
127,7.6,0.61639404296875,0.005096435546875,0.1894073486328125,0.9996381957342093,-0.34840168213591693,0.61639404296875
128,7.65,1.0195159912109375,0.0086212158203125,1.3078155517578125,0.999882740023928,-0.3003562391833323,0.5603725967340892
129,7.7,0.8597564697265625,0.16357421875,0.4056396484375,0.9274336654056705,-0.22246771960135306,0.8597564697265625
130,7.75,0.736175537109375,0.12811279296875,0.574859619140625,0.9760552071317853,-0.12268869137405111,0.736175537109375
131,7.8,0.9972686767578125,0.098297119140625,0.5417938232421875,0.9839372336188134,-0.04651010770696817,0.9972686767578125
132,7.849,0.9581451416015625,-0.74444580078125,-0.01739501953125,0.9997391404922935,-0.004984115225413268,0.9997033583656437
133,7.939,0.2343597412109375,-2.0614471435546875,0.8217926025390625,0.9995713377843961,-0.02258792019978768,0.9999872384112943
134,7.989,0.9050140380859375,-0.328643798828125,-0.0893096923828125,-0.26224153906439246,-0.05379355612133157,0.9050140380859375
135,8.039,0.88214111328125,0.3104400634765625,0.3747711181640625,0.770106937598317,-0.09299592982690714,0.88214111328125
136,8.089,0.9044036865234375,0.4784088134765625,0.13494873046875,0.2714842252492705,-0.11101873285448578,0.9044036865234375
137,8.138,0.6327056884765625,-0.3238983154296875,0.2934722900390625,0.6714433470326873,-0.11391969849364719,0.6327056884765625
138,8.248,0.4063568115234375,-2.3629150390625,0.51019287109375,0.6871078416862691,-0.17961448565817212,0.5294439032229763
139,8.298,1.4720611572265625,0.2683868408203125,0.751312255859375,0.7324779170727979,-0.28712816781018907,0.3178171861186513
140,8.547,-2.56512451171875,-1.9571380615234375,-1.0438232421875,0.5364609764292662,-0.4724775786174225,0.6259323705677928
141,8.597,-1.4542694091796875,0.814971923828125,2.426483154296875,0.6664667552158352,-0.416971593029114,0.550363662407894
142,8.647,-1.1178741455078125,-0.0276641845703125,-0.17144775390625,-0.9872308709323036,-0.41368897349270706,NaN
143,8.717,-2.0297698974609375,-0.71392822265625,0.8204803466796875,-0.9907741330010974,-0.3788549270813962,NaN
144,8.766,-0.880096435546875,-0.149749755859375,0.6358489990234375,0.9733699712740377,-0.31582942223833965,-0.880096435546875
145,8.816,0.185272216796875,0.1032257080078125,0.7479248046875,0.9906097120136863,-0.3089492667955929,0.185272216796875
146,8.866,0.794677734375,0.028717041015625,0.9521026611328125,0.9991138037734041,-0.2891803665608808,0.13420479784609304
147,8.916,0.70782470703125,-0.281036376953125,0.5464935302734375,0.8892993435838499,-0.2333274497598371,0.70782470703125
148,8.966,1.3057403564453125,-0.1746673583984375,1.195159912109375,0.8252808580909045,-0.20245005680027212,0.7069181740184242
149,9.016,0.8251190185546875,-0.4291534423828125,0.534271240234375,0.7796312312673952,-0.1258386821846284,0.8251190185546875
150,9.065,0.8161468505859375,-0.9771728515625,0.6473846435546875,0.704006179741094,-0.05897697969447628,0.8555362531578803
151,9.115,0.032958984375,-1.4158782958984375,0.1577606201171875,0.6193926704558518,0.008150652019469332,0.8832546457082513
152,9.165,0.84454345703125,-0.183349609375,0.1092071533203125,0.5117277004117741,0.011348315804714775,0.84454345703125
153,9.215,1.4404296875,0.1901092529296875,0.0164794921875,0.46644557293646055,0.015288123996398466,0.8926072884000557
154,9.265,0.7069244384765625,-1.1580352783203125,0.063446044921875,0.4827356370985914,0.009037944626025302,0.9411015748707444
155,9.354,-0.538818359375,-2.420928955078125,-0.1226959228515625,0.4910035222804401,-0.06769743923275609,0.9300790896208336
156,9.404,1.4287872314453125,0.6012420654296875,0.662994384765625,0.4964746257943139,-0.2357518812111657,0.7806985198468337
157,9.464,2.1019439697265625,0.6625213623046875,0.8830718994140625,0.7293802932147254,-0.34684923699326253,0.8633386753699098
158,9.514,1.949493408203125,-0.0038604736328125,0.9716796875,0.9085764762642552,-0.43897909015384645,0.9457230872746246
159,9.564,1.710968017578125,0.5553436279296875,1.51043701171875,0.9477427213322162,-0.5085226600294801,0.9745891293606239
160,9.773,0.6923370361328125,2.5493621826171875,-1.069305419921875,0.8939946256545002,-0.5037177422432153,0.8995362568520499
161,9.843,-1.9223480224609375,-0.6078643798828125,1.6858062744140625,0.9242106090055725,-0.45080907141192783,0.8335458341695198
162,9.893,-1.3875885009765625,-0.4628448486328125,1.102569580078125,0.9110643050410332,-0.38566699093989804,0.7499895217995971
163,9.943,-0.3727569580078125,-0.222320556640625,0.91937255859375,0.9719849344471801,-0.2955443394451385,-0.3727569580078125
164,9.992,0.2205657958984375,-0.2064208984375,0.421905517578125,0.8982532870793186,-0.20742557160607467,0.2205657958984375
165,10.042,0.709197998046875,-0.1657257080078125,0.61688232421875,0.9657563109819901,-0.1529313635248925,0.709197998046875
166,10.092,1.0981292724609375,0.007781982421875,0.52862548828125,0.9307280950002581,-0.11087272704226506,0.6567637570180394
167,10.142,0.938079833984375,-0.178314208984375,0.5316314697265625,0.9480911450084498,-0.06820290623346593,0.938079833984375
168,10.192,1.116729736328125,-0.5735321044921875,0.3184814453125,0.899990257173357,-0.0546218327087988,0.9392663258179175
169,10.242,0.906890869140625,-0.9533843994140625,0.94378662109375,0.8938854776182296,-0.022531053218422407,0.9535023520323174
170,10.291,0.9537506103515625,-0.541717529296875,0.136077880859375,0.24362821941708826,0.014007161757114283,0.9537506103515625
171,10.341,0.784759521484375,-0.18170166015625,0.429718017578125,0.9210457742450654,0.0313660986668044,0.784759521484375
172,10.391,0.8327178955078125,-0.1052398681640625,0.2490081787109375,0.921112865137349,0.06801449799690296,0.8327178955078125
173,10.441,0.6241912841796875,-1.1724853515625,0.061492919921875,0.904142947782174,0.0820325774302365,0.885532427129708
174,10.521,0.02569580078125,-2.3839111328125,-0.1752166748046875,0.897609257834293,-0.037454810441796785,0.8027950590470656
175,10.57,0.9244232177734375,-0.3758392333984375,0.618072509765625,0.8544310562770302,-0.19913534721892243,0.9244232177734375
176,10.62,1.557647705078125,0.6546173095703125,1.2371368408203125,0.9210375677932463,-0.33959988789386375,0.8739763614999674
177,10.67,1.90704345703125,0.8443450927734375,0.9568939208984375,0.9831878984258128,-0.44605022562463753,0.8856219787700894
178,10.929,1.6327362060546875,2.9565887451171875,0.631927490234375,0.8340438814202175,-0.5104214600522156,0.7316415955917008
179,10.979,-1.6562042236328125,-0.591796875,0.817657470703125,0.8820752741341981,-0.4757555835936239,0.7522665102694989
180,11.059,-2.013519287109375,-0.5425262451171875,0.7550811767578125,0.8474260015301718,-0.42215972775204097,0.6307629206445731
181,11.109,-0.8058013916015625,-0.055267333984375,0.2544403076171875,0.977212844442416,-0.3598375164229906,-0.8058013916015625
182,11.159,-0.232330322265625,-0.2355499267578125,0.538970947265625,0.9163132560302557,-0.3205823165519214,-0.232330322265625
183,11.208,0.451995849609375,-0.24462890625,1.034088134765625,0.9731407614318118,-0.2692971972123556,0.451995849609375
184,11.258,0.573699951171875,-0.2639312744140625,0.2509918212890625,0.6891204203646691,-0.2514750555706809,0.573699951171875
185,11.308,1.0198974609375,-0.1631622314453125,1.0264739990234375,0.6453791529699435,-0.20471892261372066,0.5198188064638398
186,11.358,0.9665985107421875,-0.004058837890625,0.6412506103515625,0.9999799689006886,-0.1985777846060191,0.9665985107421875
187,11.408,0.98779296875,-0.055206298828125,0.9884033203125,0.9989760918366497,-0.17732255899282223,0.9770530445180825
188,11.458,0.348663330078125,-1.07891845703125,0.7175445556640625,0.9941986774559833,-0.19244783929016057,0.9863486544513147
189,11.507,0.2086334228515625,-1.5634765625,1.0096588134765625,0.9949433045004215,-0.14947296384474523,0.981653531223227
190,11.557,1.01629638671875,-0.160858154296875,0.696929931640625,0.9805392644559281,-0.09440692964093195,0.9736284265242404
191,11.607,1.27001953125,0.526519775390625,0.182891845703125,0.9569167856745799,-0.039050304081457266,0.9641739182169343
192,11.657,0.7581634521484375,0.3778839111328125,0.0583343505859375,0.15256395842744955,0.00168143959600743,0.7581634521484375
193,11.707,0.430755615234375,-0.4513397216796875,0.38897705078125,0.6528347500468864,-0.007828960990786206,0.430755615234375
194,11.836,0.1891937255859375,-2.1721954345703125,1.261749267578125,0.7007637643975115,-0.05670097723307424,0.2811433985163925
195,11.886,1.8027496337890625,0.8562774658203125,0.917205810546875,0.6287372897363354,-0.1873705474008024,-0.04845165791031309
196,12.135,-3.75604248046875,-1.581146240234375,-3.9694366455078125,0.1692560417968487,-0.3569883674741034,0.4107274535335727
197,12.185,-2.5049591064453125,-0.3244171142578125,1.9434967041015625,0.5591603280362373,-0.16056208969462726,0.4461384946517804
198,12.235,-1.531005859375,0.015106201171875,-0.5290374755859375,0.39298760450190967,-0.19170026658034933,0.30236510377111725
199,12.305,-2.246368408203125,-0.5529937744140625,1.25341796875,0.36829328339019307,-0.14080605271130897,0.12139591203679255
200,12.355,-0.49041748046875,0.0398406982421875,0.64697265625,0.9981093157606804,-0.06923874958739294,-0.49041748046875
201,12.404,0.4801483154296875,-0.0341339111328125,0.881072998046875,0.9992503996284402,-0.027097666617734016,0.4801483154296875
202,12.454,0.80181884765625,-0.0806884765625,0.5671844482421875,0.9900318919656805,0.016413639330541033,0.80181884765625
203,12.504,1.106964111328125,-0.209808349609375,1.189239501953125,0.963858551868797,0.06624510540820482,0.7982961033843686
204,12.554,1.0844268798828125,0.0807952880859375,0.5487518310546875,0.932287080171023,0.11849474990143277,0.809683290666626
205,12.604,0.885955810546875,0.0943145751953125,0.9202117919921875,0.8988853173883281,0.19368607380059802,0.851223842417812
206,12.654,0.5677032470703125,-0.2385711669921875,0.5489044189453125,0.9171207139856099,0.25948832633267294,0.5677032470703125
207,12.703,0.0027923583984375,-1.44293212890625,0.194366455078125,0.9319667669048061,0.3111108469693979,0.6621030380537438
208,12.773,-0.289581298828125,-2.0660247802734375,1.21337890625,0.9512400405794995,0.32765958246899424,0.6531749158423586
209,12.823,0.6937103271484375,-0.507080078125,0.4509735107421875,0.6645578117075319,0.32273675859046025,0.6937103271484375
210,12.873,0.9596099853515625,0.3610382080078125,0.35833740234375,0.7044470726160064,0.3382918910696052,0.9596099853515625
211,12.923,0.8932952880859375,0.657257080078125,0.3714752197265625,0.49203927505253453,0.3438465734203302,0.8932952880859375
212,12.973,0.8546142578125,0.0753326416015625,0.3170013427734375,0.9729056148334948,0.34907710321707364,0.8546142578125
213,13.022,0.1003875732421875,-2.07794189453125,0.04644775390625,0.9868384703267472,0.34476495697980364,0.9228357501208696
214,13.102,-0.19189453125,-2.4758453369140625,0.1351776123046875,0.9864423634163108,0.252819522382575,0.7747098931971116
215,13.152,1.16162109375,0.8328857421875,0.777862548828125,0.9891452793283365,0.07657028010604025,0.5809220862198716
216,13.431,-2.4484100341796875,-1.4647216796875,0.2498321533203125,0.9978024294542721,-0.14956321817630738,0.8651801572756929
217,13.481,-2.1263580322265625,0.2276611328125,0.6920928955078125,0.9980247633061825,-0.07336612582099272,0.84448788492876
218,13.531,-1.63330078125,0.78240966796875,0.455078125,0.9988463061821112,-0.001384021952811485,0.7270932516121402
219,13.591,-2.3000946044921875,-0.710540771484375,0.9398651123046875,0.9953535910718101,0.0987885501437126,0.6430840873227219
220,13.64,-0.8063201904296875,-0.1308135986328125,0.702362060546875,0.9830943937394998,0.1709948364191641,-0.8063201904296875
221,13.69,-0.410430908203125,-0.3524322509765625,1.0993499755859375,0.9867338559542556,0.28136753535590925,-0.8696535459634328
222,13.74,0.52020263671875,-0.15960693359375,0.2681427001953125,0.8592954429286568,0.3745351944823075,0.52020263671875
223,13.79,0.842803955078125,-0.0475616455078125,0.7766265869140625,0.9981300081307014,0.4471967793850698,0.8428039550781251
224,13.84,0.9236297607421875,-0.2253265380859375,0.753021240234375,0.992698301501464,0.5177821039109267,0.8347462636501165
225,13.89,0.9382781982421875,-0.0958099365234375,0.265167236328125,0.9404914522488729,0.5711227661829802,0.9382781982421875
226,13.939,0.97808837890625,-0.2050323486328125,0.780242919921875,0.9344663943330689,0.6020252450005718,0.9430183871030885
227,13.989,0.6531982421875,-0.7047576904296875,0.467376708984375,0.5526832094954747,0.6235721469944969,0.6531982421875
228,14.039,0.508544921875,-0.8968505859375,0.264892578125,0.2832615555349761,0.6447729795706497,0.508544921875
229,14.089,0.550140380859375,-0.64910888671875,0.203125,0.2986479737489356,0.6629604653331099,0.550140380859375
230,14.139,0.798095703125,-0.46356201171875,-0.1042327880859375,-0.2193746409366153,0.6879543868971137,0.798095703125
231,14.189,0.398345947265625,-1.6749114990234375,-0.3255157470703125,-0.2900669030236777,0.7054665618527904,0.8388745954883511
232,14.268,0.2393798828125,-2.3220062255859375,0.3154754638671875,-0.3160431472227633,0.6437843578113568,0.7247240129530049
233,14.318,1.07110595703125,0.27178955078125,0.44512939453125,0.8534813753033476,0.5345289142748442,NaN
234,14.368,1.848602294921875,1.09527587890625,0.5937652587890625,0.8049748044426985,0.3604137660676209,NaN
235,14.418,1.430999755859375,0.4471282958984375,0.332733154296875,0.6874889319164417,0.17720167952800853,NaN
236,14.468,1.95391845703125,0.5115203857421875,1.882781982421875,0.5049522354360875,0.03237913793609353,NaN
237,14.627,-3.07952880859375,-1.4372406005859375,-1.6184844970703125,0.7487651139991985,-0.22570687486676655,NaN
238,14.677,-1.52813720703125,0.35333251953125,2.648590087890625,0.46330878502240325,-0.06765460778306942,NaN
239,14.727,-0.2364349365234375,0.931671142578125,-0.30499267578125,-0.31111472363454223,-0.10944555934076299,-0.2364349365234375
240,14.777,-1.447418212890625,-0.513427734375,1.69866943359375,-0.406285395401261,-0.052905747113809985,-0.2303055890109064
241,14.826,-1.8072662353515625,-0.54705810546875,0.624114990234375,-0.3265559798728651,0.008876597973062601,-0.3044606477039589
242,14.876,-1.2276153564453125,-0.3724212646484375,0.49786376953125,-0.3034316732300023,0.09791108744975734,-0.4113623860404885
243,14.926,-0.2552642822265625,-0.0973663330078125,0.653961181640625,0.989097259724693,0.15595408608051267,-0.2552642822265625
244,14.976,0.3386688232421875,-0.19219970703125,0.712615966796875,0.9654994906146523,0.2133560418637435,0.3386688232421875
245,15.026,0.624786376953125,-0.14031982421875,0.7328033447265625,0.9821562367501757,0.2547658274835792,0.624786376953125
246,15.076,0.8755035400390625,-0.1244964599609375,0.649139404296875,0.9821011677732796,0.3401975893522321,0.8755035400390625
247,15.125,0.81549072265625,-0.287200927734375,0.601287841796875,0.9023511179317958,0.39403701267107527,0.81549072265625
248,15.175,0.906951904296875,-0.2320404052734375,0.6996612548828125,0.9491624467665175,0.4342481396198906,0.906951904296875
249,15.225,0.8209228515625,-0.18865966796875,0.5569915771484375,0.947143939818083,0.4567209078700181,0.8209228515625
250,15.275,0.268951416015625,-1.161102294921875,0.063751220703125,0.05482320040497351,0.4916426423421294,0.268951416015625
251,15.325,0.0419921875,-1.903533935546875,0.443603515625,0.04515770400635057,0.4946814253792882,0.3639403140743765
252,15.375,0.3867645263671875,-1.444305419921875,0.2855224609375,-0.012847446621526858,0.48502077073961464,0.37087058787907956
253,15.424,0.58447265625,-0.9095458984375,0.383819580078125,0.3887907113549064,0.4544227352860457,0.58447265625
254,15.474,0.530029296875,-0.8806304931640625,0.734161376953125,0.41071562408231305,0.4244504218448988,0.54263418141748
255,15.524,0.5059814453125,-0.9613037109375,0.5799560546875,0.40895076442103706,0.38420104114223014,0.49218677323364424
256,15.574,0.5700225830078125,-1.0340576171875,0.5322723388671875,0.43662938980580723,0.34649959118817514,0.4265688170453822
257,15.624,0.9384918212890625,-0.8370208740234375,0.5663909912109375,0.4641323105672355,0.29458209453966705,0.3325054450145131
258,15.674,1.6437530517578125,-0.4840240478515625,-0.1708984375,0.466586954800831,0.22993458277393597,0.2084088999365172
259,15.723,1.8948822021484375,-0.3943939208984375,-0.091705322265625,0.530363933564032,0.12003216276279645,0.13247327385086874
260,15.933,-2.3316802978515625,-1.754241943359375,0.0458221435546875,0.12824530785965224,-0.11438886272416901,0.7299695724923627
261,16.013,1.49371337890625,2.8108673095703125,-1.948944091796875,-0.2134839347344453,-0.19692315293130339,0.5148968414756689
262,16.082,-1.2652740478515625,-0.4750823974609375,2.20111083984375,-0.011114347319960685,-0.19594857334460358,0.5524373450446021
263,16.132,-1.549163818359375,-0.3966064453125,0.6412353515625,-0.11307141323029497,-0.17834147811521098,0.5217025957120415
264,16.182,-1.6485595703125,-0.3169097900390625,0.9603424072265625,-0.08180048807919858,-0.09606540280272931,0.44278423897124813
265,16.232,-1.1606903076171875,-0.182861328125,0.47955322265625,-0.10285994120146297,0.0008868975980686832,0.346213782351003
266,16.282,-0.61627197265625,-0.15936279296875,0.6174468994140625,0.9682691057687315,0.10192477433501386,-0.61627197265625
267,16.331,0.00390625,-0.085723876953125,0.51214599609375,0.9862793217828002,0.19196711308026984,0.00390625
268,16.381,0.4196929931640625,-0.2257843017578125,0.273223876953125,0.7708542122530749,0.27258066822234894,0.4196929931640625
269,16.431,0.770782470703125,-0.1894073486328125,0.5458526611328125,0.9447405884805196,0.34583555358802964,0.770782470703125
270,16.481,1.010101318359375,-0.408905029296875,0.5785369873046875,0.9281000587313553,0.4025491348729178,0.7781607480355143
271,16.531,1.095794677734375,-0.77032470703125,0.448486328125,0.889848090817834,0.4532030899589096,0.8129445741741383
272,16.581,0.7143707275390625,-1.0297698974609375,0.292449951171875,0.8218122628394202,0.4730922565449917,0.8689684357707728
273,16.63,0.6498260498046875,-0.7428436279296875,0.858856201171875,0.8243438138182451,0.48659382805628026,0.8956131592134177
274,16.68,0.5965423583984375,-0.6023101806640625,0.6002044677734375,0.7058674904751036,0.510005610156939,0.5965423583984375
275,16.73,0.673187255859375,-0.63531494140625,0.4169158935546875,0.5486476692772028,0.5428514670348541,0.673187255859375
276,16.78,0.6643524169921875,-0.829803466796875,0.188507080078125,0.22152654789260295,0.5980371278048788,0.6643524169921875
277,16.83,0.6536407470703125,-0.7209014892578125,-0.6560516357421875,-0.6730583944111251,0.6275089381889343,0.6536407470703125
278,16.88,-0.2901153564453125,-1.9596405029296875,0.0287322998046875,-0.6727291211921814,0.625355900389236,0.6963163188330251
279,16.959,-0.3223876953125,-2.2053985595703125,0.523681640625,-0.6907870473027193,0.5304259146533391,0.5971612362382938
280,17.009,0.4080047607421875,-0.57989501953125,0.498382568359375,0.6517932869770345,0.4245276855772698,0.4080047607421875
281,17.059,1.787841796875,0.7228851318359375,0.478912353515625,0.6590768896768614,0.29742014336177613,0.20347426988063194
282,17.109,1.708648681640625,0.1042327880859375,-0.4667510986328125,0.7506773587119898,0.18422549770429325,0.1803895012340203
283,17.159,1.4775238037109375,-0.7120208740234375,0.8365325927734375,0.8829479982624183,0.07845414681629215,0.21600524900722776
284,17.388,-2.1453399658203125,0.037689208984375,1.7539825439453125,0.66800012178205,0.11779627234628401,0.0031583214755294474
285,17.438,0.2334747314453125,1.410125732421875,-0.1355743408203125,0.7990789671785007,0.17742623184871362,0.04081196840585411
286,17.488,-0.8846435546875,-0.10711669921875,1.616973876953125,0.8034734408796651,0.17143662346361488,0.03190276070539744
287,17.538,-1.14154052734375,-0.1627655029296875,1.06610107421875,0.8067832311216491,0.2627270250200933,-0.015044131047804537
288,17.587,-1.940185546875,-0.2242889404296875,0.8097991943359375,0.7395950806512939,0.31975357099336327,-0.1376368248243319
289,17.637,-1.0797576904296875,0.2507171630859375,0.6618499755859375,0.6076350115793507,0.3817372924739261,-0.2347672609123606
290,17.687,-0.5292510986328125,-0.2386474609375,0.3040313720703125,0.7866127828700712,0.43550061997768813,-0.5292510986328125
291,17.737,-0.0387420654296875,-0.378326416015625,0.6384124755859375,0.8602868576057624,0.4858696947481746,-0.0387420654296875
292,17.787,0.740509033203125,-0.46160888671875,0.8910675048828125,0.7932094222278657,0.5529600702036622,-0.07805750182696415
293,17.837,0.8555450439453125,-0.4428863525390625,0.311248779296875,0.5749842766582958,0.59518253275937,0.8555450439453125
294,17.886,1.46453857421875,-0.390594482421875,0.85345458984375,0.5300696460425591,0.603846043466981,0.8700814904582989
295,17.936,0.730804443359375,-0.7914886474609375,0.8224334716796875,0.5314754035198889,0.5956067763399696,0.9072194269035564
296,17.986,0.0750885009765625,-1.6543121337890625,0.9846343994140625,0.57547991508016,0.6321092316580388,0.9063512254898062
297,18.036,0.5530242919921875,-0.8185882568359375,0.55352783203125,0.5601545034086566,0.6585138997002313,0.5530242919921875
298,18.086,0.72161865234375,-0.283172607421875,0.154876708984375,0.47985214539725685,0.7037455543506423,0.72161865234375
299,18.136,0.748046875,0.0330047607421875,0.382232666015625,0.9962927889207757,0.7280182122879282,0.748046875
300,18.185,0.87054443359375,0.1703033447265625,-0.2279205322265625,-0.8010734646636775,0.7478841296754176,0.8705444335937499
301,18.235,0.7969818115234375,-0.275848388671875,0.2518157958984375,0.674202521840682,0.7327621446082909,0.7969818115234375
302,18.285,0.2117156982421875,-1.5552520751953125,0.28265380859375,0.6281397459502694,0.6909793564062183,0.860052036395684
303,18.385,0.12274169921875,-2.076141357421875,0.5012664794921875,0.6141159936529633,0.6289643839992931,0.848477618754274
304,18.435,0.173492431640625,-1.0364990234375,0.0707855224609375,0.06813419696953354,0.46346464279441574,0.173492431640625
305,18.484,0.6219024658203125,-0.10076904296875,0.71575927734375,0.9902345516731614,0.3215184394626587,0.6219024658203125
306,18.534,1.3545989990234375,0.22735595703125,0.8873748779296875,0.9999926207485894,0.2192348727090656,0.551124793682756
307,18.584,1.89813232421875,0.14910888671875,0.68194580078125,0.9714416374682034,0.18864801442032664,0.5319548173929692
308,18.813,-1.771636962890625,-0.1031341552734375,2.4224700927734375,0.838822994444224,0.28189986290155816,0.6054936239710281
309,18.863,-0.176849365234375,0.93646240234375,-0.0332794189453125,-0.03551495967013874,0.2617362360849006,-0.176849365234375
310,18.913,-0.8717193603515625,0.06884765625,1.7636566162109375,-0.11942163957000124,0.26722370606474943,-0.1496914671595889
311,18.963,-1.04351806640625,-0.0710906982421875,0.7794647216796875,-0.07617267302126171,0.29147482066846203,-0.16359798533056438
312,19.013,-1.285308837890625,-0.22705078125,1.1129608154296875,-0.11616452732814105,0.3503721691082025,-0.2115375497141808
313,19.062,-1.5175018310546875,-0.152313232421875,0.952423095703125,-0.10101628970976667,0.45025863945737404,-0.2983154223089896
314,19.112,-0.922943115234375,-0.08447265625,0.2570343017578125,0.9500114382075422,0.538048550416862,-0.922943115234375
315,19.162,-0.386138916015625,-0.314910888671875,0.5496368408203125,0.8676763217226842,0.6051460578045901,-0.386138916015625
316,19.212,0.354888916015625,-0.0180816650390625,0.7850189208984375,0.9997348364470291,0.644437969623697,0.354888916015625
317,19.262,0.6918487548828125,-0.197235107421875,0.3424835205078125,0.8665703438326332,0.6868518667797704,0.6918487548828125
318,19.312,1.2953338623046875,-0.0814208984375,0.8427886962890625,0.800303437545975,0.7009912191726506,0.6485547724999312
319,19.361,1.335540771484375,0.0047149658203125,0.54034423828125,0.7005573052143275,0.7257582723217786,0.6509485833462899
320,19.411,0.8658599853515625,-0.41168212890625,0.7400665283203125,0.6195332310892007,0.7342006231969185,0.7149418782393941
321,19.461,0.1591339111328125,-1.7577972412109375,0.2750396728515625,0.5598852064414522,0.7571118656567571,0.7842895489668559
322,19.521,0.08013916015625,-2.0653076171875,0.6375274658203125,0.551491810884941,0.763575876245363,0.8191805105057952
323,19.571,0.724151611328125,-0.513427734375,0.325897216796875,0.5359042432562798,0.7720477421050869,0.724151611328125
324,19.621,1.1495819091796875,0.5515899658203125,0.085601806640625,0.4636406542695384,0.787449111227519,0.6572422687790778
325,19.67,1.02752685546875,0.62933349609375,0.3731689453125,0.4580028463029539,0.8028593400484291,0.670706637930661
326,19.72,0.5593719482421875,-0.171539306640625,0.5075836181640625,0.9473622284467595,0.8127211041637321,0.5593719482421875
327,19.85,0.2919769287109375,-2.4705963134765625,-0.5592041015625,0.9637546375036796,0.7520282031818855,0.4244350113965617
328,19.9,0.7137908935546875,-0.1581268310546875,0.3875732421875,0.9259030743797926,0.6560162214079684,0.7137908935546875
329,19.984,2.145721435546875,0.70513916015625,0.1600189208984375,0.9940835059097378,0.5957148383173376,0.7476183614116368
330,20.034,1.833038330078125,0.908355712890625,1.7299346923828125,0.9958254917040833,0.5014362924748869,0.8008698309117962
331,20.234,-1.8748931884765625,0.3588104248046875,2.7319488525390625,0.978818765550037,0.6052818385815151,0.6289611321401103
332,20.283,0.7418975830078125,1.4110565185546875,-1.081298828125,0.9743627849871765,0.5957735682106353,0.6112254503652452
333,20.333,-0.583038330078125,0.076873779296875,1.59088134765625,0.9993400727389912,0.6141984562738554,0.6495767717507126
334,20.383,-1.157501220703125,-0.439056396484375,1.4295501708984375,0.9998879745825204,0.6572367795411431,0.633745027089552
335,20.433,-1.37823486328125,-0.41339111328125,0.806549072265625,0.9985194138084942,0.7130583363026513,0.553046006030964
336,20.483,-1.0919036865234375,-0.2548980712890625,0.7697601318359375,0.9912515059589476,0.756035080339251,0.44766191760542756
337,20.533,-0.67840576171875,-0.281982421875,0.45361328125,0.849279786174184,0.7913697683161696,-0.67840576171875
338,20.582,-0.2372589111328125,-0.2978057861328125,0.690643310546875,0.9182686405192219,0.8213065506103742,-0.2372589111328125
339,20.632,0.4044647216796875,-0.18646240234375,0.400848388671875,0.9067026949681104,0.8316555720304835,0.4044647216796875
340,20.682,0.8001251220703125,-0.0708465576171875,0.6621856689453125,0.9943253514949683,0.8293016323608151,0.8001251220703125
341,20.732,1.1916046142578125,0.031524658203125,0.9741363525390625,0.9203273440786758,0.8076465260987632,0.8113015230288312
342,20.782,1.3770294189453125,-0.390472412109375,0.158935546875,0.7691198492555748,0.8514955287026084,0.8350708485781387
343,20.832,0.89617919921875,-1.0735015869140625,-0.3636627197265625,0.6565863037985447,0.8659983870221163,0.8838326252330865
344,20.881,0.3212127685546875,-1.9908294677734375,-0.9156646728515625,0.5860227510281758,0.8650222078254305,0.9195982433141078
345,20.931,0.2739715576171875,-1.8433837890625,-0.5871429443359375,0.6153472464375398,0.8303748457305568,0.9304028995758186
346,20.981,0.3001708984375,-0.955322265625,-0.10943603515625,-0.11380974285886389,0.7772784355823921,0.3001708984375
347,21.031,0.4511871337890625,-0.24481201171875,0.3025054931640625,0.7773370862888058,0.7114233308127443,0.4511871337890625
348,21.081,0.428985595703125,-0.40032958984375,0.3585968017578125,0.6672155069436618,0.6652935220063105,0.428985595703125
349,21.131,-0.199005126953125,-1.43951416015625,-0.787811279296875,0.7036449373077958,0.6528916553037521,0.5173696261340666
350,21.185,-0.24603271484375,-1.9940338134765625,-0.3661651611328125,0.7186148969126607,0.5785237163002377,0.5078698793033387
351,21.235,0.3226165771484375,-1.357513427734375,-0.21063232421875,0.6987622003569367,0.43858787333214794,0.4475273280824064
352,21.285,0.280517578125,-1.4105072021484375,0.1566619873046875,0.754176865290513,0.3509895355628872,0.38125082808654726
353,21.335,0.492156982421875,-1.279083251953125,-0.035858154296875,0.8140220905690829,0.2557144295199694,0.2891366371189195
354,21.385,1.2158660888671875,-0.6356964111328125,0.7039794921875,0.963070807342153,0.21704133827140196,0.23255750145331278
355,21.435,1.708404541015625,-0.39337158203125,0.760711669921875,0.9972390321424205,0.23965433819290738,0.27684424617058534
356,21.485,1.4631195068359375,-0.08544921875,0.750762939453125,0.9510058824434563,0.2220777166825555,0.27453026369070344
357,21.624,-3.2371826171875,-1.849578857421875,-1.0613250732421875,0.8983389541704584,0.1744276559950026,0.3833554719971491
358,21.674,-1.653564453125,-0.0788726806640625,2.979461669921875,0.9545450617812523,0.328243649888879,0.28100157216844157
359,21.724,-0.8557586669921875,0.3123626708984375,-1.4866943359375,0.9157525594041158,0.35029288799569575,0.27497727669173794
360,21.774,-0.9847259521484375,0.0402984619140625,2.066986083984375,0.9631572688858556,0.3881557345970086,0.20276820880337787
361,21.823,-1.548675537109375,-0.06170654296875,0.4777374267578125,0.9886194277506207,0.47295304437375213,0.07283093778790313
362,21.873,-1.618438720703125,-0.222869873046875,0.410430908203125,0.9987175720226364,0.5684498714529932,-0.07966607523743001
363,21.923,-0.832275390625,-0.0503387451171875,0.5483551025390625,0.9958128681048837,0.6403603066986385,-0.832275390625
364,21.973,0.01092529296875,-0.151397705078125,0.18365478515625,0.7716155445055772,0.7001404228563265,0.01092529296875
365,22.023,1.0706634521484375,-0.23370361328125,0.3468017578125,0.8292781905456473,0.7370756745341188,NaN
366,22.073,1.5684356689453125,-0.194427490234375,0.24359130859375,0.7336478126771749,0.7298017609801654,NaN
367,22.122,1.2359466552734375,-0.7339630126953125,0.4805755615234375,0.6948849425217382,0.7045989833672451,NaN
368,22.172,0.4322509765625,-1.4666290283203125,0.92718505859375,0.7228644847813309,0.7259875605487767,NaN
369,22.222,0.380615234375,-1.6441192626953125,0.8152313232421875,0.7497060835745989,0.7466958956767642,NaN
370,22.272,0.4543304443359375,-1.2414398193359375,0.4053192138671875,0.7215132697638453,0.788538364679703,NaN
371,22.322,0.5529022216796875,-0.89849853515625,0.3891448974609375,0.39743162147872246,0.8163288227426699,0.5529022216796875
372,22.372,0.914398193359375,-0.3009033203125,-0.381866455078125,-0.7854528344928651,0.8416824724273515,0.914398193359375
373,22.421,1.0875701904296875,-0.071685791015625,-0.1067352294921875,-0.8301465850774594,0.8360901559075492,NaN
374,22.471,0.7668304443359375,-0.23931884765625,0.1864471435546875,0.6145776363069084,0.8166167207254705,0.7668304443359375
375,22.521,0.6013946533203125,-0.5864410400390625,0.389068603515625,0.5528375260681877,0.7942742993105257,0.6013946533203125
376,22.571,0.31219482421875,-1.2234649658203125,0.274017333984375,0.5090525056921125,0.7469282283584119,0.6398981103279647
377,22.621,0.2087249755859375,-1.7111663818359375,0.2436065673828125,0.49125326882489195,0.7156195738930746,0.6300148105573969
378,22.671,0.8015289306640625,-1.519805908203125,0.48028564453125,0.5199447676085226,0.6381121216099637,0.5910090577157441
379,22.72,1.117095947265625,-0.886962890625,0.2635955810546875,0.6375998156999345,0.5425279492717152,0.5702227351350351
380,22.77,1.712615966796875,-0.073883056640625,0.1806640625,0.8566782239801831,0.45621376455295126,0.6081304404192527
381,22.82,1.84722900390625,0.1580657958984375,1.1265411376953125,0.9661117056449482,0.3384188352662407,0.6707740354932047
382,22.87,1.261749267578125,1.8238525390625,0.56658935546875,0.981903233099474,0.26669211152288297,0.7764827036041927
383,23.039,-2.4766082763671875,-0.047149658203125,-0.785064697265625,0.9346356796847541,0.43033515017031604,0.6768736467796053
384,23.089,-0.2921142578125,0.8763275146484375,0.566162109375,0.5426610980060466,0.49575172504505627,-0.2921142578125
385,23.139,-1.099578857421875,-0.2230224609375,1.350982666015625,0.626865491463036,0.505773593241258,-0.3355634554081282
386,23.189,-1.9321441650390625,-0.739501953125,0.9106597900390625,0.7246474443994247,0.5705601039478853,-0.41743966379026776
387,23.239,-1.101776123046875,-0.1705780029296875,0.4517974853515625,0.8087987590027582,0.6478357450157063,-0.5429800080740093
388,23.289,-0.587615966796875,-0.3465118408203125,0.7165985107421875,0.9002722034535537,0.726204507024977,-0.587615966796875
389,23.338,0.258575439453125,-0.467315673828125,0.0753631591796875,0.15921115550844003,0.7581957882746352,0.258575439453125
390,23.388,1.085784912109375,-0.469085693359375,0.74151611328125,0.10499594675785076,0.7598173050558704,0.1955905019663096
391,23.438,1.3814849853515625,-0.58154296875,0.6124725341796875,0.0014047987336438534,0.7564852662910114,0.1831981639547142
392,23.488,1.1578521728515625,-0.7117156982421875,0.6314697265625,-0.05303358849635725,0.7806551939948353,0.2011016048563559
393,23.538,1.0236358642578125,-0.795623779296875,0.573455810546875,-0.059368158220019236,0.823268000498325,0.22206954644142227
394,23.588,0.6361541748046875,-0.7095184326171875,0.17236328125,0.23606414163232925,0.8627294061624522,0.6361541748046875
395,23.637,0.7865447998046875,-0.537689208984375,0.215850830078125,0.37254370844974216,0.8938058446288933,0.7865447998046875
396,23.687,0.80322265625,-0.5520782470703125,0.1769561767578125,0.30523122800046737,0.9098981804834585,0.80322265625
397,23.737,0.744659423828125,-0.5713958740234375,0.1961517333984375,0.3246865599626467,0.9210152175554946,0.744659423828125
398,23.787,0.8207855224609375,-0.6644134521484375,0.41339111328125,0.5282818942241013,0.9226729671091919,0.8207855224609375
399,23.837,0.7652130126953125,-0.684814453125,0.2703399658203125,0.36718824082961166,0.9156241420037489,0.7652130126953125
400,23.887,0.881988525390625,-0.854522705078125,0.2735595703125,0.2871678300675935,0.8921016321054568,0.7670909330730206
401,23.936,0.787353515625,-1.3802642822265625,-0.341705322265625,0.14644774884896158,0.8417551790031281,0.7440466110653615
402,23.986,0.73211669921875,-1.21435546875,-0.6224822998046875,0.1623202379007479,0.7651680153825158,0.6900304947483131
403,24.036,1.14898681640625,-0.3533935546875,0.3808746337890625,0.28449151608035333,0.6718785485587012,0.6385578123119303
404,24.086,1.2612152099609375,0.264801025390625,0.474700927734375,0.42433784985640033,0.5518873068860358,0.6631109078487059
405,24.136,1.0743408203125,-0.03521728515625,1.1271209716796875,0.6334721734837168,0.43817478112305824,0.7546215736460776
406,24.186,1.5905914306640625,1.0569610595703125,1.4395904541015625,0.7892321852714209,0.3625137622592177,0.8313796748825186
407,24.385,1.446136474609375,3.187042236328125,-1.86041259765625,0.4256679149729632,0.32471129542179955,0.5969059227908474
408,24.435,-1.6473846435546875,-1.1038818359375,2.11083984375,0.5720064865322483,0.3841137379249909,0.5547078378978745
409,24.505,-2.083648681640625,-0.525360107421875,1.0729217529296875,0.37695018868315316,0.43414660235989244,0.4364787244985123
410,24.554,-1.14630126953125,-0.367950439453125,0.4728851318359375,0.23193302968274734,0.5414759049399728,0.2935044113388376
411,24.604,0.159332275390625,-0.4192657470703125,1.0223236083984375,0.9252159843266358,0.620409274172561,0.159332275390625
412,24.654,0.7413482666015625,-0.4046173095703125,0.0955963134765625,0.2299331827488085,0.7027676950917154,0.7413482666015625
413,24.704,1.1588134765625,-0.3348541259765625,0.3024444580078125,0.15779613956800218,0.7320782181416283,0.6634877270982416
414,24.754,0.98876953125,-0.26373291015625,0.66754150390625,0.18520034926830128,0.7291114677662652,0.6370403509523073
415,24.804,0.934112548828125,-0.2708587646484375,0.4525909423828125,0.8580743681703858,0.7611951849069017,0.934112548828125
416,24.853,0.931854248046875,-0.4716644287109375,0.758758544921875,0.908030641620355,0.8041285802234275,0.9600365906462988
417,24.903,0.7135467529296875,-0.725616455078125,0.3810882568359375,0.4649674348528695,0.8625528594127585,0.7135467529296875
418,24.953,0.6921844482421875,-0.648651123046875,0.3700408935546875,0.4955160815590771,0.9129614801285515,0.6921844482421875
419,25.003,0.7391204833984375,-0.5988006591796875,0.3119659423828125,0.46203996578845047,0.9512953568997758,0.7391204833984375
420,25.053,0.5478515625,-0.6431732177734375,0.148529052734375,0.22500975709925483,0.9699789047555326,0.5478515625
421,25.103,0.39178466796875,-0.88629150390625,0.3482208251953125,0.365684101535627,0.9838856621871557,0.39178466796875
422,25.152,0.6461639404296875,-1.024200439453125,-0.0934906005859375,0.2928759318959227,0.9869122443635884,0.4006871643981227
423,25.202,0.7079010009765625,-1.0657806396484375,0.3004302978515625,0.2704686153266488,0.9883572241337286,0.39833950991659495
424,25.252,0.8869476318359375,-0.784820556640625,0.339324951171875,0.25855290904195105,0.9847738391881294,0.3939226106425876
425,25.302,0.856903076171875,-0.8047027587890625,0.437774658203125,0.2798199908170933,0.9814261519894505,0.39643350040915604
426,25.352,1.361083984375,-0.877899169921875,0.104095458984375,0.3139845172810613,0.9730395328568567,0.3787898150328226
427,25.402,1.311798095703125,-0.67071533203125,-0.465118408203125,0.38142169694720274,0.9658381509760477,0.3528810759250111
428,25.451,1.3151397705078125,-0.0435028076171875,1.0927734375,0.5585765542109979,0.901329322543963,0.3631505176232749
429,25.531,2.2098388671875,1.64605712890625,1.4142913818359375,0.6620496196740792,0.8221422207717511,0.47093224319045063
430,25.581,-1.425079345703125,1.6094512939453125,0.5229644775390625,0.7670123561906523,0.7888999662280596,0.7580020227843914
431,25.671,-3.5283355712890625,-1.1181640625,-0.7431488037109375,0.9044080285149099,0.7105915858430886,0.8957510681456354
432,25.721,-1.7301788330078125,-0.8028717041015625,1.8448333740234375,0.8077581661065886,0.73035297496593,0.8344127995390493
433,25.77,-0.3612518310546875,1.513916015625,0.3368072509765625,0.8430927062054745,0.7697160076073454,0.7572859218363545
434,25.82,-0.9677734375,0.360198974609375,1.1795501708984375,0.8579503728955742,0.7895703642574643,0.7245755931638366
435,25.87,-1.513092041015625,-0.1688385009765625,1.0393218994140625,0.8353065049419872,0.8428986269138303,0.6504535340762402
436,25.92,-1.55078125,0.0565643310546875,0.695648193359375,0.7604496296935186,0.8762660001725925,0.5055566361062459
437,25.97,-1.2224578857421875,-0.164825439453125,0.258209228515625,0.7560025628057128,0.9140930818155261,0.36660994214427645
438,26.02,-0.29302978515625,0.003143310546875,0.640655517578125,0.999987963849728,0.9378183735022917,-0.29302978515625
439,26.069,0.1949615478515625,-0.0774078369140625,0.63763427734375,0.9927116647760029,0.9547677978734713,0.1949615478515625
440,26.119,0.791351318359375,-0.0029754638671875,0.6756134033203125,0.999990302126061,0.9636188851091635,0.791351318359375
441,26.169,1.0831298828125,-0.009185791015625,0.804351806640625,0.9946542183932994,0.9697527184649789,0.7823845515711756
442,26.219,1.203643798828125,-0.211456298828125,1.0530853271484375,0.9818001816191829,0.9819248060594878,0.8089943259832925
443,26.269,0.7033843994140625,-0.709381103515625,0.4973602294921875,0.5740768446055269,0.9908896211682663,0.7033843994140625
444,26.319,0.7220458984375,-0.623138427734375,0.7556915283203125,0.49439186773841715,0.9964203951478185,0.7480897222548881
445,26.368,0.7812347412109375,-0.785980224609375,0.3434600830078125,0.40042124729257733,0.999877072208019,0.7812347412109375
446,26.418,0.49530029296875,-0.965789794921875,0.3193359375,0.3139317546882764,0.9989926091788366,0.49530029296875
447,26.468,0.6221160888671875,-1.1321868896484375,0.232330322265625,0.26483513736695263,0.9960611647172796,0.5442807734521764
448,26.518,0.55908203125,-0.901397705078125,0.3094024658203125,0.32465464065465605,0.9912674770460376,0.55908203125
449,26.568,0.6454010009765625,-0.5009765625,0.2969970703125,0.509957507508194,0.9904208763707536,0.6454010009765625
450,26.618,0.6592864990234375,-1.0752105712890625,-0.543731689453125,0.5092998731921554,0.9916084637704295,0.6816610456721112
451,26.707,0.4152679443359375,-2.226776123046875,-0.3734283447265625,0.5499982866214588,0.999537205705211,0.549068638576485
452,26.757,0.9799041748046875,-0.474090576171875,0.2679443359375,0.4920295576574285,0.9766776442042707,0.9799041748046875
453,26.807,1.6334075927734375,0.5719146728515625,0.369720458984375,0.6518249131589848,0.926452855699643,0.9687491879973225
454,26.857,1.7061004638671875,0.40667724609375,0.5087890625,0.8139022017575885,0.8659276251173563,0.9845241842345448
455,26.907,1.7342376708984375,1.4097442626953125,1.1051788330078125,0.8888879283962249,0.7962501138573516,0.9994372415589218
456,27.076,-1.5363006591796875,-1.2169342041015625,2.682159423828125,0.9138988096321384,0.8181661203562017,0.9991712816531646
457,27.126,-0.3088836669921875,1.4470672607421875,-0.7279205322265625,0.8684236679377183,0.8392027574983751,0.9841675051625406
458,27.176,-1.0221405029296875,0.2367401123046875,1.4431610107421875,0.9117200164004123,0.8787898310202451,0.9718076340151721
459,27.226,-1.6276092529296875,-0.2124481201171875,0.94049072265625,0.871598325830335,0.913333243686216,0.9507286968919182
460,27.275,-1.653961181640625,-0.2788238525390625,0.4224853515625,0.8873905887382642,0.9505828966679966,0.9101948390134019
461,27.325,-0.81158447265625,0.04742431640625,1.1642913818359375,0.8905340615436474,0.9760587047379373,0.8548889414514914
462,27.375,0.0881500244140625,0.126129150390625,0.674285888671875,0.9829511666901533,0.9858694069536101,0.0881500244140625
463,27.425,0.6971435546875,0.0719757080078125,0.6104583740234375,0.9931209194806971,0.9935488333049144,0.6971435546875
464,27.475,0.9003143310546875,-0.1213226318359375,0.5282440185546875,0.9746250628682017,0.9991634526867601,0.9003143310546875
465,27.525,1.2553558349609375,-0.0464019775390625,0.8779296875,0.9223795197528682,0.9999924859987013,0.9006888780056972
466,27.574,0.91644287109375,-0.4877166748046875,0.2299346923828125,0.4264361003947454,0.9956673180869476,0.91644287109375
467,27.624,0.9224700927734375,-0.7566680908203125,0.6815643310546875,0.35163437235197686,0.9928444896283157,0.9493876006417814
468,27.674,0.3255615234375,-1.7497406005859375,0.2560882568359375,0.3148943761924171,0.9872326226495377,0.9755076729856587
469,27.724,0.3055419921875,-1.5559539794921875,0.3378143310546875,0.323371854901892,0.9824148431357469,0.9804519327521808
470,27.774,0.7196197509765625,-0.6994781494140625,0.144561767578125,0.2023936737933662,0.9837114812999572,0.7196197509765625
471,27.824,0.598236083984375,-0.6975555419921875,0.413787841796875,0.5101870534575268,0.9844356425382771,0.598236083984375
472,27.873,0.70147705078125,-0.9974822998046875,0.4163970947265625,0.5247257698811626,0.989011747813469,0.565974808294728
473,27.923,0.336181640625,-1.375457763671875,0.597869873046875,0.5714115588006418,0.992933210240281,0.48941971842965043
474,27.973,1.1790008544921875,-0.53857421875,0.6231231689453125,0.5802908850580533,0.9986946533359254,0.3317165362380736
475,28.043,2.0026702880859375,-0.0407257080078125,0.163177490234375,0.6457797536806564,0.999660807929583,0.2128494509661486
476,28.133,2.30731201171875,0.9829864501953125,0.5048675537109375,0.7301743604730089,0.9728710703666046,0.23771177486035697
477,28.182,-1.6841583251953125,1.6524658203125,0.38818359375,0.8448662174231261,0.9428942558623618,0.5086805332342478
478,28.312,-1.7730560302734375,-1.016357421875,2.8631439208984375,0.7492247660258321,0.9475613854340884,0.4486521669060095
479,28.362,0.01397705078125,1.4064178466796875,-0.4013214111328125,0.7793046930465177,0.9567073876554808,0.3644038157555946
480,28.412,-0.7621002197265625,0.29742431640625,1.8990478515625,0.7542282662250583,0.9653786678875863,0.34114516925269556
481,28.462,-1.5381622314453125,0.0311279296875,0.6566314697265625,0.712687610222453,0.9771072744287662,0.224049064322711
482,28.511,-1.86181640625,-0.1085968017578125,1.11627197265625,0.7177848597161383,0.9953528802499201,0.07165014500377317
483,28.561,-1.0146636962890625,0.1938323974609375,0.530029296875,0.9391690170603406,0.9999889722233649,NaN
484,28.611,-0.2138671875,-0.2576141357421875,0.7159576416015625,0.9409421071415076,0.9967907149551192,-0.2138671875
485,28.661,0.33966064453125,-0.1740264892578125,0.559967041015625,0.954946455704869,0.9936273344751979,0.33966064453125
486,28.711,0.8469390869140625,-0.19061279296875,0.45562744140625,0.9225238844203316,0.9817811786439726,0.8469390869140625
487,28.761,1.348419189453125,-0.0162200927734375,0.942535400390625,0.8888171474738349,0.9752613743826176,0.8469909146872874
488,28.81,0.926300048828125,-0.51300048828125,0.4466552734375,0.6566539966373617,0.9578679146094707,0.926300048828125
489,28.86,0.9954071044921875,-0.9195556640625,1.0210418701171875,0.6455974780267886,0.9573995025086567,0.9449024492716029
490,28.91,0.720001220703125,-1.0478515625,0.8395233154296875,0.5817156560895788,0.9430274952316332,0.9533401947604301
491,28.96,0.7691192626953125,-0.343658447265625,0.2128448486328125,0.5265404313268741,0.9261631970535866,0.7691192626953125
492,29.01,0.914215087890625,0.053192138671875,0.1199188232421875,0.9141086827915408,0.9163052325472477,0.914215087890625
493,29.06,0.6958160400390625,-0.18597412109375,0.288238525390625,0.8402783447944251,0.9168020044148844,0.6958160400390625
494,29.109,0.536102294921875,-0.7513885498046875,0.1290435791015625,0.16926211934679425,0.9277506007281592,0.536102294921875
495,29.219,0.318572998046875,-2.0283660888671875,0.7731781005859375,0.11091496692520465,0.9389752916758795,0.3804577908731567
496,29.269,0.9842071533203125,-0.1696014404296875,0.1237335205078125,0.5893767762527963,0.9601259122827137,0.9842071533203125
