index,time,acc x,acc y,acc z,sin ori x,sin ori y,sin ori z
0,0,0.239532470703125,-0.56365966796875,-0.7993316650390625,-0.8172444750871449,0,0.23787090155120322
1,0.05,0.1869659423828125,-0.5621795654296875,-0.78533935546875,-0.8131341782408716,-0.006459159193198879,0.1869659423828125
2,0.099,0.1739501953125,-0.5576324462890625,-0.8076629638671875,-0.8229157653765862,-0.008382427499105938,0.1739501953125
3,0.149,0.199462890625,-0.589599609375,-0.7919769287109375,-0.8021257972393985,-0.014698974045754007,0.199462890625
4,0.199,0.1671142578125,-0.5428466796875,-0.797332763671875,-0.8266080157277577,-0.03176946747671729,0.16711425781249997
5,0.249,0.1842803955078125,-0.52337646484375,-0.82635498046875,-0.844810613823143,-0.03173497031272603,0.1842803955078125
6,0.299,0.2360382080078125,-0.5258636474609375,-0.802642822265625,-0.8364638945157904,-0.0453083822985151,0.2360382080078125
7,0.349,0.211517333984375,-0.5257568359375,-0.82110595703125,-0.8421554187306839,-0.055021696878690886,0.211517333984375
8,0.398,0.192596435546875,-0.5283660888671875,-0.856842041015625,-0.8511796733578082,-0.06088268015452917,0.192596435546875
9,0.448,0.1762847900390625,-0.541046142578125,-0.85626220703125,-0.8453779121760536,-0.0642919381895777,0.1762847900390625
10,0.498,0.1720428466796875,-0.5313873291015625,-0.8428192138671875,-0.845905325724649,-0.06222748467965959,0.1720428466796875
11,0.548,0.169677734375,-0.5315399169921875,-0.78961181640625,-0.8295534733761017,-0.06101618858753372,0.169677734375
12,0.598,0.1809844970703125,-0.5434722900390625,-0.8399810791015625,-0.8395906161490059,-0.05898461471271415,0.1809844970703125
13,0.648,0.1811370849609375,-0.5397186279296875,-0.841766357421875,-0.8418224255794954,-0.05621024703162163,0.1811370849609375
14,0.697,0.18316650390625,-0.549713134765625,-0.83392333984375,-0.8349205519489724,-0.05349427013083225,0.18316650390625
15,0.747,0.1783294677734375,-0.5527496337890625,-0.8273773193359375,-0.831509635884162,-0.05965339302573259,0.1783294677734375
16,0.797,0.1782684326171875,-0.58349609375,-0.860687255859375,-0.8277177399175804,-0.06747974934763387,0.1782684326171875
17,0.847,0.1749267578125,-0.5988311767578125,-0.819427490234375,-0.8073823073448999,-0.08884538154083063,0.1749267578125
18,0.897,0.1499786376953125,-0.61883544921875,-0.8450469970703125,-0.80679895690077,-0.1144720160151706,0.1499786376953125
19,0.947,0.0600128173828125,-0.724090576171875,-0.780181884765625,-0.7329639997973013,-0.13602553730732456,0.0600128173828125
20,0.996,0.025299072265625,-0.730804443359375,-0.66070556640625,-0.6706350701654342,-0.1408832483282083,0.025299072265625
21,1.046,0.0435791015625,-0.7466583251953125,-0.696990966796875,-0.68237573257245,-0.1407444959040598,0.04357910156249999
22,1.096,0.1269378662109375,-0.762542724609375,-0.7121734619140625,-0.6825573775654489,-0.1532766559553296,0.1269378662109375
23,1.146,0.1281890869140625,-0.785675048828125,-0.649871826171875,-0.6373686141653061,-0.16578421135621155,0.1281890869140625
24,1.196,0.252532958984375,-0.7455596923828125,-0.66131591796875,-0.6635765933775849,-0.18163200083037223,0.252532958984375
25,1.246,0.20050048828125,-0.734649658203125,-0.6344146728515625,-0.6535871276518339,-0.2045596038081988,0.20050048828125
26,1.295,0.2249298095703125,-0.7092132568359375,-0.7082061767578125,-0.70660420168551,-0.223345473599455,0.2249298095703125
27,1.345,0.2108612060546875,-0.7364044189453125,-0.717803955078125,-0.6980052357979308,-0.23028316408010605,0.2108612060546875
28,1.395,0.198944091796875,-0.7367706298828125,-0.64019775390625,-0.6559030974993314,-0.21361535852763597,0.198944091796875
29,1.445,0.1559906005859375,-0.7439117431640625,-0.553192138671875,-0.5967215182670839,-0.20843280665806851,0.1559906005859375
30,1.495,0.0858917236328125,-0.7404632568359375,-0.5797576904296875,-0.6164828071150837,-0.20010267392758774,0.0858917236328125
31,1.545,0.0636749267578125,-0.79925537109375,-0.45068359375,-0.49117367769305537,-0.20074010925171748,0.0636749267578125
32,1.594,0.2845611572265625,-0.7845611572265625,-0.6951446533203125,-0.663167618598546,-0.23073095348439934,0.2845611572265625
33,1.644,0.228302001953125,-0.6359405517578125,-0.668853759765625,-0.7247128981421325,-0.2175287605095421,0.228302001953125
34,1.694,0.2501983642578125,-0.6826171875,-0.553741455078125,-0.6299859435692744,-0.23276952803965875,0.2501983642578125
35,1.744,0.1439056396484375,-0.7832489013671875,-0.5488433837890625,-0.5738616701043431,-0.2344651371029394,0.1439056396484375
36,1.794,0.2131500244140625,-0.720367431640625,-0.431915283203125,-0.5142285720847617,-0.253038886763236,0.2131500244140625
37,1.844,0.2136077880859375,-0.7550811767578125,-0.64715576171875,-0.650758519200823,-0.2707864672428428,0.2136077880859375
38,1.893,0.17535400390625,-0.740936279296875,-0.584930419921875,-0.6196317103507932,-0.28344058813821904,0.17535400390625
39,1.943,0.1928863525390625,-0.779693603515625,-0.53997802734375,-0.5693455019691658,-0.3175027119679923,0.1928863525390625
40,1.993,0.1368408203125,-0.767181396484375,-0.53704833984375,-0.5734776539024713,-0.36434943227729594,0.1368408203125
41,2.043,0.0912628173828125,-0.7652130126953125,-0.489990234375,-0.5392519171498668,-0.398801890998823,0.0912628173828125
42,2.093,0.0388031005859375,-0.9232330322265625,-0.4889373779296875,-0.4680125358329123,-0.41713116157729113,0.0388031005859375
43,2.143,-0.0695037841796875,-0.8867340087890625,-0.655609130859375,-0.5945066030298684,-0.4389932744542931,-0.0695037841796875
44,2.193,0.027923583984375,-0.718231201171875,-0.65423583984375,-0.6734041730985616,-0.45709113643282123,0.027923583984374997
45,2.242,-0.1941986083984375,-0.74005126953125,-0.6067047119140625,-0.6339937758551463,-0.46384873585846936,-0.1941986083984375
46,2.292,0.0946502685546875,-0.744354248046875,-0.481048583984375,-0.5427800374066851,-0.45679567927108,0.0946502685546875
47,2.342,0.062591552734375,-0.6679229736328125,-0.6096343994140625,-0.674143725568929,-0.46542777165544225,0.062591552734375
48,2.392,-0.0451202392578125,-0.6790924072265625,-0.73004150390625,-0.7321947250160142,-0.4424381644916177,-0.0451202392578125
49,2.442,0.062652587890625,-0.6749420166015625,-0.826812744140625,-0.774664487481184,-0.44802188494331996,0.062652587890625
50,2.492,0.038055419921875,-0.67950439453125,-0.947357177734375,-0.812587570039729,-0.435192166900404,0.038055419921875
51,2.541,0.2008514404296875,-0.6760406494140625,-0.9948577880859375,-0.8239653552112481,-0.4222734603675325,0.01517019229877071
52,2.591,0.22491455078125,-0.645233154296875,-0.78289794921875,-0.7716913958765464,-0.3908497822344851,0.22491455078125
53,2.641,0.0254669189453125,-0.672882080078125,-0.7120208740234375,-0.7268001675438849,-0.3799292385530178,0.0254669189453125
54,2.691,0.1012725830078125,-0.6755218505859375,-0.6107177734375,-0.6706302875738154,-0.36296351958691453,0.1012725830078125
55,2.741,0.0929718017578125,-0.6776275634765625,-0.6455841064453125,-0.689780956092063,-0.3576799690152939,0.0929718017578125
56,2.791,0.1806793212890625,-0.7093658447265625,-0.86932373046875,-0.7747861324504675,-0.35506630148924134,0.1806793212890625
57,2.84,0.0560760498046875,-0.6956939697265625,-0.756683349609375,-0.7361513929306449,-0.3454352168631031,0.0560760498046875
58,2.89,0.197998046875,-0.6920623779296875,-0.68231201171875,-0.7020726128708114,-0.34559987290926464,0.197998046875
59,2.94,0.1136627197265625,-0.6959381103515625,-0.7424163818359375,-0.7295750798593107,-0.3598436955934899,0.1136627197265625
60,2.99,0.0393829345703125,-0.69561767578125,-0.6970062255859375,-0.7078114675013225,-0.34156114102471735,0.0393829345703125
61,3.04,0.142791748046875,-0.6745452880859375,-0.5985260009765625,-0.663700883268597,-0.33503215125971436,0.142791748046875
62,3.09,0.0850067138671875,-0.70281982421875,-0.71710205078125,-0.7141830590854691,-0.35474631236737886,0.0850067138671875
63,3.139,0.0681304931640625,-0.7120819091796875,-0.6854400634765625,-0.6935007518655778,-0.3450442706377834,0.0681304931640625
64,3.189,0.0526275634765625,-0.70233154296875,-0.597015380859375,-0.6476695621099973,-0.3504099836191752,0.0526275634765625
65,3.239,0.2001800537109375,-0.716888427734375,-0.634979248046875,-0.663047490362808,-0.36651188851711514,0.2001800537109375
66,3.289,0.2840728759765625,-0.754180908203125,-0.6174468994140625,-0.6334773115693311,-0.37711368992086985,0.2840728759765625
67,3.339,0.1571807861328125,-0.716705322265625,-0.6149749755859375,-0.6511917964070624,-0.40011982143432884,0.1571807861328125
68,3.389,0.12371826171875,-0.720733642578125,-0.6767730712890625,-0.6845251391879856,-0.41605155913645875,0.12371826171875
69,3.438,0.0887298583984375,-0.68939208984375,-0.6593475341796875,-0.6911837850935526,-0.40259828846612705,0.0887298583984375
70,3.488,0.151031494140625,-0.7149658203125,-0.700775146484375,-0.6999839362638784,-0.39017219267153064,0.151031494140625
71,3.538,0.1448516845703125,-0.687530517578125,-0.7676849365234375,-0.7449256255831191,-0.39229669102535186,0.1448516845703125
72,3.588,0.1475677490234375,-0.6772003173828125,-0.6981964111328125,-0.7178174734951837,-0.395196391178928,0.1475677490234375
73,3.638,0.2015838623046875,-0.653228759765625,-0.6633453369140625,-0.7125191666762759,-0.4106986561994085,0.2015838623046875
74,3.688,-0.071319580078125,-0.6737518310546875,-0.7918243408203125,-0.7616064296493439,-0.440853863874693,-0.071319580078125
75,3.737,0.0789642333984375,-0.692657470703125,-0.71148681640625,-0.7165245465473918,-0.44752555980610625,0.0789642333984375
76,3.787,0.0253448486328125,-0.711181640625,-0.6382598876953125,-0.6679213076667349,-0.46610417764648804,0.0253448486328125
77,3.837,0.412200927734375,-0.69964599609375,-0.84014892578125,-0.7684363012210081,-0.4759193748432001,0.412200927734375
78,3.887,-0.1421051025390625,-0.6716766357421875,-0.81060791015625,-0.7700075222105974,-0.4846207136795832,-0.1421051025390625
79,3.937,0.1441192626953125,-0.6361236572265625,-0.6726226806640625,-0.7265444687611835,-0.47630977598314195,0.1441192626953125
80,3.987,0.0159454345703125,-0.6885528564453125,-0.5915985107421875,-0.6516865228583876,-0.47972371367403827,0.0159454345703125
81,4.036,0.295196533203125,-0.5995941162109375,-0.772003173828125,-0.7897748223788774,-0.48879980683142926,0.295196533203125
82,4.086,-0.2037200927734375,-0.64251708984375,-0.8406829833984375,-0.7945211260186116,-0.4875941709518485,-0.2037200927734375
83,4.136,0.206787109375,-0.65789794921875,-0.7548675537109375,-0.7538675575697084,-0.51310461158949,0.206787109375
84,4.186,0.0635833740234375,-0.7248382568359375,-0.8517608642578125,-0.7615679000024904,-0.50662711877615,0.0635833740234375
85,4.236,0.1063079833984375,-0.686187744140625,-0.6365203857421875,-0.6800758199606731,-0.5120543089734901,0.1063079833984375
86,4.286,-0.0044097900390625,-0.755401611328125,-0.566375732421875,-0.5998810450275968,-0.5191937319234186,-0.0044097900390625
87,4.335,0.0751495361328125,-0.62005615234375,-0.6369781494140625,-0.7165608158423149,-0.5801138827406974,0.0751495361328125
88,4.385,-0.00177001953125,-0.7100677490234375,-0.6645355224609375,-0.6833098855266186,-0.6378549883261039,-0.00177001953125
89,4.435,-0.0219268798828125,-0.6849365234375,-0.6033782958984375,-0.6610193382122969,-0.6370416375835297,-0.0219268798828125
90,4.485,-0.127288818359375,-0.6341400146484375,-0.7513427734375,-0.7641939471620989,-0.6325803675017362,-0.127288818359375
91,4.535,-0.0043182373046875,-0.4643402099609375,-0.9421234130859375,-0.8969722874101408,-0.6399644316877736,-0.0043182373046875
92,4.585,-0.19732666015625,-0.578033447265625,-1.0121612548828125,-0.8683703990979774,-0.6209306083368111,-0.19732666015625
93,4.635,-0.0248260498046875,-0.5599517822265625,-0.8783111572265625,-0.8432148305144287,-0.6266208867263833,-0.0248260498046875
94,4.684,0.0474700927734375,-0.5908203125,-0.9295501708984375,-0.8439540015977018,-0.6309088389278564,0.0474700927734375
95,4.734,0.0995330810546875,-0.5321197509765625,-0.8711090087890625,-0.8533797379389886,-0.6317622961273217,0.09953308105468751
96,4.784,0.128753662109375,-0.4904632568359375,-0.863555908203125,-0.8695402369109082,-0.6394740287252058,0.12875366210937503
97,4.834,0.060882568359375,-0.51177978515625,-0.85888671875,-0.8590564231494736,-0.6479973588269229,0.060882568359375
98,4.884,0.0040435791015625,-0.5145263671875,-0.9027252197265625,-0.8687884525908469,-0.6525698067229362,0.0040435791015625
99,4.934,0.050048828125,-0.511962890625,-0.87677001953125,-0.8635586026972318,-0.6472350548854713,0.050048828125
100,4.983,0.080474853515625,-0.4778289794921875,-0.8184051513671875,-0.8635832030971909,-0.6422233011822012,0.080474853515625
101,5.033,0.1286468505859375,-0.4731597900390625,-0.802215576171875,-0.8613385139571752,-0.6406156892937128,0.1286468505859375
102,5.083,0.2430419921875,-0.419921875,-0.8549346923828125,-0.8975734556108748,-0.6378079263603583,0.2430419921875
103,5.133,0.1815338134765625,-0.463775634765625,-0.906768798828125,-0.890308904266426,-0.6344923457397412,0.18153381347656247
104,5.183,0.1450042724609375,-0.5128326416015625,-0.8781585693359375,-0.8635333594535959,-0.6227307297928814,0.1450042724609375
105,5.233,0.1549224853515625,-0.5282135009765625,-0.90899658203125,-0.8646199494986129,-0.619261139364786,0.1549224853515625
106,5.282,0.1646881103515625,-0.54791259765625,-0.8947906494140625,-0.8528166738875977,-0.6153446157619594,0.1646881103515625
107,5.332,0.1679840087890625,-0.56982421875,-0.8569488525390625,-0.8327112245538235,-0.6190067592288326,0.1679840087890625
108,5.382,0.054107666015625,-0.683013916015625,-0.790313720703125,-0.7566002672221026,-0.6243017890779701,0.054107666015625
109,5.432,0.109893798828125,-0.725799560546875,-0.6902923583984375,-0.6891601224293393,-0.6281234160768775,0.109893798828125
110,5.482,0.11260986328125,-0.767059326171875,-0.6370391845703125,-0.6388950164800706,-0.6289510868380268,0.11260986328125001
111,5.532,0.1580963134765625,-0.7855224609375,-0.6202392578125,-0.6196996495863726,-0.6194926365692411,0.1580963134765625
112,5.581,0.1388092041015625,-0.8444366455078125,-0.484283447265625,-0.4974921702370358,-0.6266966600597135,0.1388092041015625
113,5.631,0.1991424560546875,-0.8754425048828125,-0.420928955078125,-0.4333305037958834,-0.6379507078189025,0.1991424560546875
114,5.681,0.1711578369140625,-0.892669677734375,-0.3206634521484375,-0.3380682738777513,-0.6493570825293747,0.1711578369140625
115,5.731,0.102203369140625,-0.9525909423828125,-0.2522430419921875,-0.2559747012359772,-0.651663988026922,0.102203369140625
116,5.781,0.192779541015625,-0.930877685546875,-0.115386962890625,-0.12301358086680632,-0.6572937887977086,0.192779541015625
117,5.831,0.2119903564453125,-0.907379150390625,-0.0610809326171875,-0.06716377565200728,-0.6705131390843964,0.2119903564453125
118,5.88,0.2017364501953125,-0.91180419921875,0.06903076171875,0.0754918401858211,-0.6942093774179136,0.2017364501953125
119,5.93,0.192413330078125,-0.9304046630859375,0.155517578125,0.16486325687347267,-0.7103116528741924,0.192413330078125
120,5.98,0.188079833984375,-0.929962158203125,0.1977996826171875,0.20804263495423117,-0.7143716942479627,0.188079833984375
121,6.03,0.1748199462890625,-0.969757080078125,0.2454986572265625,0.24541297580548382,-0.7154186689779625,0.1748199462890625
122,6.08,0.1629791259765625,-0.9651947021484375,0.2150726318359375,0.21749409183836232,-0.7208855142631538,0.1629791259765625
123,6.13,0.1741485595703125,-0.941314697265625,0.261138916015625,0.2673232107447089,-0.7262929399438777,0.1741485595703125
124,6.179,0.1779022216796875,-0.9558563232421875,0.32501220703125,0.32192142883863883,-0.7234459563856599,0.1779022216796875
125,6.229,0.189300537109375,-0.917694091796875,0.23626708984375,0.24932670150979946,-0.7263473437902332,0.18930053710937497
126,6.279,0.197998046875,-0.8990020751953125,0.369781494140625,0.3804016109042087,-0.7331774148761039,0.197998046875
127,6.329,0.1686248779296875,-0.8928680419921875,0.3924407958984375,0.4023768156475766,-0.7496269266692797,0.1686248779296875
128,6.379,0.215087890625,-0.898345947265625,0.2188720703125,0.23671455349922937,-0.743359513462197,0.215087890625
129,6.429,0.1981658935546875,-0.9130096435546875,0.33575439453125,0.3451463156588067,-0.7483411232012465,0.1981658935546875
130,6.478,0.181365966796875,-0.921539306640625,0.350982666015625,0.3559245461822385,-0.7501400263449958,0.181365966796875
131,6.528,0.179443359375,-0.89056396484375,0.3312835693359375,0.3486513724263172,-0.7400874109641251,0.179443359375
132,6.578,0.160186767578125,-0.913604736328125,0.4430694580078125,0.4363608888955236,-0.7291134394388015,0.160186767578125
133,6.628,0.1417388916015625,-0.8946990966796875,0.41070556640625,0.417187808015614,-0.7336864041584887,0.1417388916015625
134,6.678,0.177886962890625,-0.894622802734375,0.4735565185546875,0.4678357738467579,-0.7179227665808733,0.177886962890625
135,6.728,0.1168212890625,-0.90655517578125,0.4512939453125,0.4456458558023071,-0.7004602021830044,0.11682128906250001
136,6.778,0.2180023193359375,-0.8540496826171875,0.2159881591796875,0.2451797529517228,-0.7015019179923583,0.2180023193359375
137,6.827,0.30511474609375,-0.8164215087890625,0.433074951171875,0.46860747754671717,-0.7092963349623793,0.30511474609375
138,6.877,0.1976470947265625,-0.862457275390625,0.407379150390625,0.42709859354875424,-0.7105664628547231,0.1976470947265625
139,6.927,0.1459197998046875,-0.9128875732421875,0.3833465576171875,0.38717562828325575,-0.714885098104429,0.1459197998046875
140,6.977,0.1410064697265625,-0.916412353515625,0.3957366943359375,0.39644714317401575,-0.71917663461679,0.1410064697265625
141,7.027,0.12396240234375,-0.9306793212890625,0.4111175537109375,0.4040710532679424,-0.7159589163675824,0.12396240234375001
142,7.077,0.12939453125,-0.90435791015625,0.409912109375,0.41283476315316603,-0.7153900225002087,0.12939453125
143,7.126,0.1172637939453125,-0.889373779296875,0.43951416015625,0.44303737603090126,-0.7148206540033525,0.1172637939453125
144,7.176,0.1438140869140625,-0.874359130859375,0.4642333984375,0.4689425919055854,-0.7174071710952806,0.1438140869140625
145,7.226,0.094482421875,-0.889617919921875,0.47540283203125,0.4713135699068624,-0.7188725760405054,0.094482421875
146,7.276,0.0941162109375,-0.8661651611328125,0.4882354736328125,0.4910384736423924,-0.7191316120000912,0.0941162109375
147,7.326,0.0943450927734375,-0.8488311767578125,0.5185394287109375,0.5213103882469806,-0.7209473890600173,0.0943450927734375
148,7.376,0.0703887939453125,-0.8524932861328125,0.54339599609375,0.5375091782490415,-0.7217553109794718,0.0703887939453125
149,7.425,0.0778045654296875,-0.8298187255859375,0.521820068359375,0.5323322070259296,-0.7214727555551008,0.0778045654296875
150,7.475,0.0677642822265625,-0.8273162841796875,0.5557708740234375,0.5576327118585924,-0.7210784835966966,0.0677642822265625
151,7.525,0.0547027587890625,-0.81219482421875,0.550018310546875,0.5607236260187913,-0.7220004157006148,0.0547027587890625
152,7.575,0.0652008056640625,-0.8261871337890625,0.5891571044921875,0.580600763957802,-0.7208977329423761,0.0652008056640625
153,7.625,0.0475616455078125,-0.831939697265625,0.550323486328125,0.5517101318102429,-0.7226785310079645,0.0475616455078125
154,7.675,0.0389556884765625,-0.80328369140625,0.555419921875,0.5687256508435173,-0.7222801127872447,0.0389556884765625
155,7.724,0.0317840576171875,-0.8256988525390625,0.667877197265625,0.628887770441451,-0.7314227755653453,0.0317840576171875
156,7.774,0.0325164794921875,-0.8172607421875,0.5972900390625,0.5900558943744768,-0.7355831395812663,0.0325164794921875
157,7.824,0.0823211669921875,-0.80584716796875,0.601409912109375,0.5981044881598425,-0.7392738807827475,0.0823211669921875
158,7.874,0.086639404296875,-0.8085784912109375,0.5646820068359375,0.57256173123626,-0.7445056032058258,0.086639404296875
159,7.924,0.0644989013671875,-0.8032989501953125,0.544586181640625,0.5611418724748416,-0.7478292577397136,0.0644989013671875
160,7.974,0.056671142578125,-0.8167266845703125,0.5682220458984375,0.5711080737136699,-0.7477759132903453,0.056671142578125
161,8.023,0.0682830810546875,-0.8195037841796875,0.5651092529296875,0.5676881801558881,-0.7463997326552556,0.0682830810546875
162,8.073,0.05859375,-0.8191680908203125,0.55035400390625,0.5576724303285461,-0.7458048009647271,0.05859375
163,8.123,0.0599517822265625,-0.825286865234375,0.5579986572265625,0.5601140263954294,-0.7435317301095861,0.0599517822265625
164,8.173,0.064422607421875,-0.8167266845703125,0.5695037841796875,0.5719751836954395,-0.7411974329662969,0.064422607421875
165,8.223,0.047210693359375,-0.8270263671875,0.587677001953125,0.5792418484174628,-0.7382003372843969,0.047210693359375
166,8.273,0.0482025146484375,-0.82891845703125,0.600250244140625,0.5865091376197675,-0.7370303153582971,0.0482025146484375
167,8.322,0.055206298828125,-0.83355712890625,0.581085205078125,0.5718729036763975,-0.7364291738313677,0.055206298828125
168,8.372,0.0466766357421875,-0.819488525390625,0.5577392578125,0.5626459606703228,-0.7363812206005658,0.0466766357421875
169,8.422,0.0501251220703125,-0.802276611328125,0.5622406005859375,0.5739054788811822,-0.7338722036589992,0.0501251220703125
170,8.472,0.04888916015625,-0.8111724853515625,0.5979766845703125,0.5933730813744519,-0.732587679991834,0.04888916015625
171,8.522,0.03973388671875,-0.80963134765625,0.5693817138671875,0.5752508958933721,-0.7311832266027136,0.03973388671875
172,8.572,0.0414581298828125,-0.8184356689453125,0.5794830322265625,0.577856480152031,-0.7312398706023006,0.0414581298828125
173,8.621,0.0465545654296875,-0.81781005859375,0.5681304931640625,0.5705359372632587,-0.7312965095598398,0.0465545654296875
174,8.671,0.040252685546875,-0.8111114501953125,0.5708770751953125,0.5755574239696855,-0.7311328731614238,0.040252685546875
175,8.721,0.0548553466796875,-0.8140411376953125,0.6155548095703125,0.6031458615558446,-0.7358149613112226,0.0548553466796875
176,8.771,0.0231475830078125,-0.811614990234375,0.5799102783203125,0.5813611829526933,-0.7356365208166389,0.0231475830078125
177,8.821,0.0632171630859375,-0.819305419921875,0.603851318359375,0.593296199572414,-0.7366876591504515,0.0632171630859375
178,8.871,0.0633087158203125,-0.801239013671875,0.5332489013671875,0.5540451376937843,-0.7366716307748917,0.0633087158203125
179,8.92,0.0563201904296875,-0.8171234130859375,0.555419921875,0.562154981950034,-0.7350983292067671,0.0563201904296875
180,8.97,0.058258056640625,-0.8033905029296875,0.564849853515625,0.5751535209423958,-0.733477235770343,0.058258056640625
181,9.02,0.05615234375,-0.807891845703125,0.58355712890625,0.5855430997439766,-0.7312179165252397,0.05615234374999999
182,9.07,0.04132080078125,-0.820892333984375,0.5726776123046875,0.5721560803769092,-0.7293310179978125,0.04132080078125
183,9.12,0.0293731689453125,-0.813690185546875,0.578155517578125,0.5792119439980642,-0.7284499816653826,0.0293731689453125
184,9.17,0.0595245361328125,-0.8006744384765625,0.582733154296875,0.588452014412447,-0.7284032355371977,0.0595245361328125
185,9.22,0.024627685546875,-0.820404052734375,0.5797882080078125,0.5771345335745075,-0.7275667249415418,0.024627685546875
186,9.269,0.04486083984375,-0.81121826171875,0.5674285888671875,0.5731747318514991,-0.7252659789664611,0.04486083984375
187,9.319,0.0485992431640625,-0.8055419921875,0.5756378173828125,0.5814058355290276,-0.724321667220388,0.0485992431640625
188,9.369,0.0479888916015625,-0.807403564453125,0.564361572265625,0.5729029173461686,-0.7221328873595425,0.0479888916015625
189,9.419,0.03082275390625,-0.811370849609375,0.5700836181640625,0.5748990216722897,-0.7191226370435917,0.03082275390625
190,9.469,0.0369415283203125,-0.80810546875,0.5693359375,0.5759460302299672,-0.7156602529915357,0.0369415283203125
191,9.519,0.0267181396484375,-0.807373046875,0.589691162109375,0.5898129995391235,-0.7116437563702945,0.0267181396484375
192,9.568,0.0242919921875,-0.7896575927734375,0.568359375,0.5841733350326834,-0.7042734557350332,0.0242919921875
193,9.618,0.0062408447265625,-0.8044281005859375,0.601043701171875,0.5985475460552939,-0.7020674567916338,0.0062408447265625
194,9.668,0.0101776123046875,-0.79730224609375,0.58221435546875,0.589732892872895,-0.7014728887025166,0.0101776123046875
195,9.718,-0.009368896484375,-0.8253021240234375,0.6103668212890625,0.5946184113951843,-0.6988362729425645,-0.009368896484375
196,9.768,-0.0320892333984375,-0.85595703125,0.613433837890625,0.5825176650300102,-0.6965407967071622,-0.0320892333984375
197,9.818,0.000274658203125,-0.826446533203125,0.613006591796875,0.5957444890216369,-0.6962597603317757,0.000274658203125
198,9.867,0.049713134765625,-0.76007080078125,0.5771636962890625,0.6047576943880774,-0.6955992121847144,0.049713134765625
199,9.917,0.0558624267578125,-0.7521820068359375,0.5537109375,0.5928322915397005,-0.6963958434891272,0.0558624267578125
200,9.967,-0.0144500732421875,-0.8119964599609375,0.5263671875,0.5439487102531502,-0.6911090478571795,-0.0144500732421875
201,10.017,-0.052001953125,-0.8629913330078125,0.5863800048828125,0.5620123708633309,-0.6910607241840462,-0.052001953125
202,10.067,-0.0200653076171875,-0.833404541015625,0.5856475830078125,0.5749533766901103,-0.6872677004210612,-0.0200653076171875
203,10.117,-0.0084686279296875,-0.8043670654296875,0.5913543701171875,0.5923306345053164,-0.6864999464635987,-0.0084686279296875
204,10.166,-0.01080322265625,-0.7917327880859375,0.6035919189453125,0.6062763874223619,-0.6877738196442877,-0.01080322265625
205,10.216,-0.0149078369140625,-0.80621337890625,0.59716796875,0.5952100920663246,-0.689645526773036,-0.0149078369140625
206,10.266,-0.027862548828125,-0.826446533203125,0.592742919921875,0.5828152776605997,-0.6920185742698779,-0.027862548828125
207,10.316,-0.0083770751953125,-0.807281494140625,0.576873779296875,0.5814011114728853,-0.6925975376231198,-0.0083770751953125
208,10.366,0.01593017578125,-0.793731689453125,0.5809783935546875,0.5906418224745753,-0.6959814377627858,0.01593017578125
209,10.416,-0.036102294921875,-0.827789306640625,0.5765838623046875,0.5715523190694016,-0.6984960722204979,-0.03610229492187499
210,10.465,-0.0280303955078125,-0.8375701904296875,0.5900726318359375,0.575931590973302,-0.6971073605630691,-0.0280303955078125
211,10.515,-0.019775390625,-0.828094482421875,0.58074951171875,0.5741809964788995,-0.6950692316257847,-0.019775390625
212,10.565,-0.0194091796875,-0.836273193359375,0.609710693359375,0.5891268351472398,-0.689493322412887,-0.0194091796875
213,10.615,0.0052490234375,-0.8211822509765625,0.5652618408203125,0.5670048739397858,-0.6816542460855324,0.0052490234375
214,10.665,0.020965576171875,-0.821502685546875,0.55389404296875,0.5590426995323605,-0.6687478323427182,0.020965576171875
215,10.715,-0.005706787109375,-0.8757171630859375,0.4975433349609375,0.4939919682946254,-0.6527106809405083,-0.005706787109375
216,10.764,-0.0381927490234375,-0.96258544921875,0.328033447265625,0.32256760945338914,-0.63124399770701,-0.0381927490234375
217,10.814,-0.0169525146484375,-0.9835968017578125,0.3069000244140625,0.29785588202704566,-0.6076043336608561,-0.0169525146484375
218,10.864,-0.03167724609375,-0.9774627685546875,0.1135406494140625,0.11538273109547248,-0.579522852141828,-0.03167724609375
219,10.914,-0.0269317626953125,-0.9751434326171875,-0.01904296875,-0.019524654591076364,-0.5470964776886157,-0.0269317626953125
220,10.964,0.022857666015625,-0.886627197265625,-0.1933441162109375,-0.21305997195852905,-0.5139386633835311,0.022857666015625
221,11.014,0.072662353515625,-0.8750457763671875,-0.310272216796875,-0.33419182019591265,-0.48951886411563167,0.072662353515625
222,11.063,0.068206787109375,-0.8827667236328125,-0.2871246337890625,-0.30930572724742467,-0.47178309654962736,0.068206787109375
223,11.113,0.0758819580078125,-0.851593017578125,-0.5076141357421875,-0.5120151892153715,-0.46314564016097837,0.0758819580078125
224,11.163,0.089202880859375,-0.8877410888671875,-0.47161865234375,-0.46916003521982524,-0.4907477232513817,0.089202880859375
225,11.213,0.0381622314453125,-0.810516357421875,-0.608795166015625,-0.6005730532095018,-0.5178657869366842,0.0381622314453125
226,11.263,0.041046142578125,-0.7947845458984375,-0.579559326171875,-0.5891913576492086,-0.550767983897739,0.041046142578125
227,11.313,-0.0254974365234375,-0.8181610107421875,-0.6042327880859375,-0.5940763339450021,-0.5746337617185686,-0.025497436523437497
228,11.363,0.005706787109375,-0.790771484375,-0.693328857421875,-0.6592602847777062,-0.5785433133782052,0.005706787109375
229,11.412,0.013397216796875,-0.7830963134765625,-0.7061767578125,-0.6696927301463113,-0.5663778799599656,0.013397216796875
230,11.462,0.026580810546875,-0.7801513671875,-0.6802825927734375,-0.6572178796351824,-0.5544189765479997,0.026580810546875
231,11.512,0.0782470703125,-0.76861572265625,-0.6349029541015625,-0.6368573186174076,-0.5508144406980439,0.0782470703125
232,11.562,0.0829010009765625,-0.764373779296875,-0.6156005859375,-0.627239960366431,-0.5488833136763117,0.0829010009765625
233,11.612,0.0222930908203125,-0.800079345703125,-0.5658416748046875,-0.577418395743535,-0.5433714193343304,0.0222930908203125
234,11.662,0.1192626953125,-0.7809295654296875,-0.611419677734375,-0.6164692030817311,-0.540095113026588,0.11926269531250001
235,11.711,0.089447021484375,-0.7887725830078125,-0.5974273681640625,-0.6037757397366619,-0.5384640847721367,0.089447021484375
236,11.761,0.1123809814453125,-0.7825927734375,-0.6071929931640625,-0.6130027399443931,-0.5368310366407029,0.11238098144531251
237,11.811,0.0760955810546875,-0.7922210693359375,-0.647674560546875,-0.6329413556421731,-0.5397043466492777,0.0760955810546875
238,11.861,0.077880859375,-0.7882232666015625,-0.6937408447265625,-0.6606839102155813,-0.5496867387689608,0.077880859375
239,11.911,0.09228515625,-0.81390380859375,-0.581695556640625,-0.5814603656179744,-0.5589209309677365,0.09228515625
240,11.961,0.0472412109375,-0.8692169189453125,-0.4846954345703125,-0.4870222096100418,-0.5563670945686977,0.0472412109375
241,12.01,0.0626678466796875,-0.8990020751953125,-0.4012603759765625,-0.40758322124317725,-0.5492479132825459,0.0626678466796875
242,12.06,0.089630126953125,-0.8983917236328125,-0.36431884765625,-0.37579900140346556,-0.5443770728573513,0.089630126953125
243,12.11,0.0791778564453125,-0.8979339599609375,-0.45611572265625,-0.4528830439692412,-0.5462002206125742,0.0791778564453125
244,12.16,0.0947418212890625,-0.88104248046875,-0.514984130859375,-0.5046331536443236,-0.5525362178272223,0.0947418212890625
245,12.21,0.0014495849609375,-0.9592437744140625,-0.5572357177734375,-0.5023077247804267,-0.5443292649978161,0.0014495849609375
246,12.26,0.0700225830078125,-0.9690093994140625,-0.24420166015625,-0.24437110877379,-0.5355813171063732,0.0700225830078125
247,12.309,0.0933074951171875,-0.9514312744140625,-0.022552490234375,-0.02369709484021325,-0.5380886479318272,0.0933074951171875
248,12.359,0.12646484375,-0.91949462890625,0.1007537841796875,0.10892322012522417,-0.5480233016244672,0.12646484375
249,12.409,0.11126708984375,-0.9138336181640625,0.2266387939453125,0.24071624909458467,-0.5450832154569581,0.11126708984375
250,12.459,0.0954132080078125,-0.980255126953125,0.129425048828125,0.13089601424924904,-0.5605246902105591,0.0954132080078125
251,12.509,-0.0884857177734375,-1.1560821533203125,0.005767822265625,0.0049890489757212645,-0.5716640720045602,-0.0884857177734375
252,12.559,-0.0077972412109375,-1.1036529541015625,0.14202880859375,0.12763717444858336,-0.5368780398416878,-0.0077972412109375
253,12.608,0.1610565185546875,-0.9060821533203125,0.0926666259765625,0.10174107338722232,-0.528020831321378,0.1610565185546875
254,12.658,0.2472381591796875,-0.7600860595703125,0.1500701904296875,0.1936991295828482,-0.5337677424627579,0.2472381591796875
255,12.708,0.16778564453125,-0.873321533203125,0.2977752685546875,0.32272443443204135,-0.5388169791400371,0.16778564453125
256,12.758,0.037841796875,-0.9915771484375,0.150482177734375,0.15004243802984196,-0.535721860365999,0.037841796875
257,12.808,0.12847900390625,-0.9859161376953125,0.2021026611328125,0.20081394443861533,-0.5224507535861947,0.12847900390625
258,12.858,0.14947509765625,-0.9121246337890625,0.230682373046875,0.2451868727947406,-0.5010246215851831,0.14947509765625
259,12.907,0.1317291259765625,-0.9179229736328125,0.23675537109375,0.24975144437059305,-0.47776134380209095,0.1317291259765625
260,12.957,0.0269927978515625,-0.99908447265625,0.20947265625,0.2052028354169058,-0.46494975310812975,0.0269927978515625
261,13.007,-0.0507965087890625,-1.0463409423828125,0.216827392578125,0.20291346076848088,-0.4345339245565594,-0.0507965087890625
262,13.057,-0.0125885009765625,-1.0499267578125,0.3895263671875,0.3478361866902271,-0.38917775058894793,-0.012588500976562498
263,13.107,0.016204833984375,-0.97607421875,0.3305511474609375,0.3207594718651998,-0.3333581495941547,0.016204833984375
264,13.157,0.003173828125,-0.91973876953125,0.3429718017578125,0.3493988721065899,-0.2841443970616935,0.003173828125
265,13.206,0.0233612060546875,-0.9985198974609375,0.46759033203125,0.4240874338659448,-0.2407257873662678,0.0233612060546875
266,13.256,-0.149993896484375,-1.122650146484375,0.347686767578125,0.2958388797092957,-0.19876928569892302,-0.149993896484375
267,13.306,-0.071044921875,-1.103302001953125,0.444976806640625,0.37403844386750335,-0.12210154333677813,-0.071044921875
268,13.356,-0.057281494140625,-0.94390869140625,0.470001220703125,0.44573116657223993,-0.051527023026774046,-0.057281494140625
269,13.406,0.0407562255859375,-0.6759796142578125,0.423126220703125,0.5305749757834062,0.021239603290429825,0.0407562255859375
270,13.456,0.1935577392578125,-0.589630126953125,0.391937255859375,0.5535756886418789,0.10898849396501344,0.1935577392578125
271,13.506,0.2845916748046875,-0.6138153076171875,0.316680908203125,0.4584977271618823,0.18827526644891646,0.2845916748046875
272,13.555,-0.04425048828125,-1.0062255859375,0.2744293212890625,0.2631211195674292,0.2512334121972629,-0.04425048828125
273,13.605,-0.3339996337890625,-1.382293701171875,0.3230743408203125,0.26853550569933105,0.31643896065367877,-0.07151062763766963
274,13.655,-0.4490509033203125,-1.40899658203125,0.2835540771484375,0.26691853909450963,0.3883918702310374,-0.11864503675925589
275,13.705,-0.2770843505859375,-1.0724334716796875,0.2806396484375,0.25316034235630536,0.46278645669567503,-0.2770843505859375
276,13.755,-0.1513214111328125,-0.7288360595703125,0.4406585693359375,0.5173909642231844,0.5332646963717506,-0.1513214111328125
277,13.805,0.0354461669921875,-0.5728607177734375,0.4439849853515625,0.6125871202798837,0.5730125694934555,0.0354461669921875
278,13.854,0.04119873046875,-0.486480712890625,0.4134979248046875,0.6476387078267126,0.5939731778926816,0.04119873046875
279,13.904,0.0369720458984375,-0.7475128173828125,0.3459320068359375,0.4199848517648003,0.6015404691475479,0.0369720458984375
280,13.954,-0.405059814453125,-1.4269256591796875,0.287200927734375,0.4455649808480547,0.6153363291784402,0.019868143992112685
281,14.004,-0.2001953125,-1.394500732421875,0.5920562744140625,0.429993022545177,0.6433490773405408,-0.04490288108511568
282,14.054,0.18798828125,-0.736419677734375,0.424224853515625,0.4991638351846555,0.657291285837912,0.18798828125
283,14.104,0.399322509765625,-0.3152923583984375,0.6256866455078125,0.8930246443151044,0.6574062724473277,0.399322509765625
284,14.153,0.225738525390625,-0.29718017578125,0.6439971923828125,0.90798582880517,0.6384791875810375,0.225738525390625
285,14.203,0.1105804443359375,-0.359832763671875,0.6114501953125,0.8618379976058143,0.6173899094188239,0.11058044433593751
286,14.253,-0.0029449462890625,-0.610382080078125,0.5647430419921875,0.6791324568667804,0.6068716538372972,-0.0029449462890625
287,14.303,-0.5387115478515625,-1.79327392578125,0.33538818359375,0.663192949826796,0.5903443549019807,0.03652160369654961
288,14.378,0.282501220703125,-1.983062744140625,0.751983642578125,0.5980895596065596,0.6390327520610717,-0.0893741286725371
289,14.427,1.0388641357421875,-0.6396942138671875,-0.2707672119140625,0.5641534779640202,0.720277396092258,-0.2755456777874379
290,14.477,1.1799468994140625,0.6796112060546875,1.01275634765625,0.7418376094235045,0.8240503376312073,-0.4076540698295686
291,14.751,-1.9778289794921875,3.2144622802734375,-1.2353363037109375,0.5577464948323788,0.7282555123429529,-0.5565438978035895
292,14.801,-0.6163787841796875,-0.2360992431640625,1.440093994140625,0.5975867482785252,0.6128885082761044,-0.681398528659482
293,14.851,1.03179931640625,-0.2726593017578125,0.8073883056640625,0.4537650202992151,0.5291704504768515,-0.7564511756809248
294,14.901,1.6183319091796875,0.0184173583984375,0.795257568359375,0.45185657047853783,0.3970188499849472,-0.8135659661108392
295,14.951,1.7130889892578125,0.072021484375,0.7881011962890625,0.44187750398721065,0.299103872166814,-0.8012330886742697
296,15.001,1.3271942138671875,0.0194244384765625,0.2579345703125,0.48999795360290643,0.1702163635975657,-0.7603306896228218
297,15.05,0.2580718994140625,-0.6116790771484375,0.474822998046875,0.6131941090366688,0.10005851479722905,0.2580718994140625
298,15.1,0.4667816162109375,-0.169830322265625,0.45306396484375,0.9363758257470572,0.04536719265012036,0.4667816162109375
299,15.15,0.849609375,-0.221099853515625,0.2935638427734375,0.7987876717959338,0.024868539451038615,0.849609375
300,15.2,0.7714996337890625,-0.620574951171875,0.6538848876953125,0.7253403829781518,0.01538864427915418,0.7714996337890625
301,15.25,0.61102294921875,-1.09600830078125,0.90850830078125,0.7335364037487536,-0.007165451124388172,0.7984595726705088
302,15.3,0.4371185302734375,-0.8250885009765625,0.5815582275390625,0.5761162959171257,-0.021913303153845095,0.4371185302734375
303,15.349,0.5023040771484375,-0.684539794921875,0.570220947265625,0.640032771893471,-0.02607241284847361,0.5023040771484375
304,15.399,0.4315948486328125,-0.4902801513671875,0.5188751220703125,0.7268513042749413,-0.02748682939910513,0.4315948486328125
305,15.449,0.5001068115234375,-0.3980712890625,0.5732421875,0.8213790707411773,-0.028901190920831606,0.5001068115234375
306,15.499,0.5184173583984375,-0.4059906005859375,0.58612060546875,0.822051177326349,-0.018798809988716577,0.5184173583984375
307,15.549,0.447967529296875,-0.5103759765625,0.6719207763671875,0.7963242053210352,0.002433848958402517,0.447967529296875
308,15.599,0.3498382568359375,-0.508392333984375,0.676727294921875,0.7995194912108983,0.022504435384220995,0.3498382568359375
309,15.648,0.2992401123046875,-0.5419921875,0.58245849609375,0.7320799659534399,0.06265051496074214,0.2992401123046875
310,15.698,0.298095703125,-0.5139007568359375,0.77838134765625,0.8345260638606893,0.09826441595011429,0.298095703125
311,15.748,0.2823333740234375,-1.01324462890625,0.822296142578125,0.8332945215897433,0.08529773310060768,0.3292670849917066
312,15.798,0.108306884765625,-1.0942840576171875,0.8284912109375,0.8303474436896606,0.07846709001568207,0.32073404674367934
313,15.848,0.37322998046875,-0.7635650634765625,0.720550537109375,0.6863243068885955,0.09911986119145468,0.37322998046875
314,15.898,0.29522705078125,-0.5864410400390625,0.552154541015625,0.6855029595367557,0.10538475020340356,0.29522705078125
315,15.948,0.2773284912109375,-0.4996490478515625,0.627197265625,0.7821499665234792,0.11865701275673791,0.2773284912109375
316,15.997,0.273223876953125,-0.5993194580078125,0.658599853515625,0.739608901312938,0.12005591258480691,0.273223876953125
317,16.047,0.1604766845703125,-0.7440948486328125,0.63067626953125,0.6465738525747255,0.12231111092819369,0.1604766845703125
318,16.097,0.163726806640625,-0.876861572265625,0.72021484375,0.6347055846776021,0.11673297631011968,0.163726806640625
319,16.147,0.1822967529296875,-0.813262939453125,0.616607666015625,0.6041685244581252,0.11857790689959516,0.1822967529296875
320,16.197,0.2100677490234375,-0.7957000732421875,0.688323974609375,0.6542340020968991,0.11815519333967632,0.2100677490234375
321,16.247,0.2166290283203125,-0.678985595703125,0.6403656005859375,0.686114495098343,0.12495876735834523,0.2166290283203125
322,16.296,0.2720794677734375,-0.608245849609375,0.6567230224609375,0.7336665584284872,0.1300706239749323,0.2720794677734375
323,16.346,0.3067474365234375,-0.51531982421875,0.602447509765625,0.7599192188846797,0.148359535884783,0.3067474365234375
324,16.396,0.4510955810546875,-0.4630889892578125,0.58099365234375,0.781987601954213,0.18431462877861168,0.4510955810546875
325,16.481,0.6530609130859375,-2.0655059814453125,0.5738372802734375,0.7299725614424233,0.24268055234394847,0.34578661473229017
326,16.531,1.1660919189453125,-0.4233856201171875,0.26708984375,0.6667131120485691,0.3017920883717635,0.18620333578670487
327,16.879,-2.6273040771484375,2.4353179931640625,-0.764404296875,0.4588508071505854,0.11442152904938921,-0.13128741957325019
328,16.929,-1.1050567626953125,0.5738525390625,1.7855224609375,0.5642770838927245,0.032403631228915646,-0.3016884236547455
329,16.979,0.0626678466796875,0.051666259765625,0.8725433349609375,0.9982514831588248,-0.034363560200374337,0.0626678466796875
330,17.029,1.11492919921875,-0.206695556640625,0.25152587890625,0.7725981595452336,-0.14781614911902408,NaN
331,17.079,1.3065185546875,-0.4086151123046875,0.7333984375,0.7639589055748025,-0.276550161046356,NaN
332,17.129,1.5297393798828125,-0.045257568359375,0.236907958984375,0.6995448998316666,-0.37934656985357595,NaN
333,17.178,1.2079620361328125,-0.22869873046875,0.1771240234375,0.6422999106027686,-0.4169572759316814,NaN
334,17.228,0.869476318359375,-0.4422760009765625,0.37457275390625,0.6462832520693224,-0.48973205705705597,0.869476318359375
335,17.278,0.4972076416015625,-0.92584228515625,0.491790771484375,0.46910840091658657,-0.5204664355827934,0.4972076416015625
336,17.328,0.3773040771484375,-1.1047210693359375,0.9407958984375,0.5410370370305934,-0.5189904196002317,0.5737594514040055
337,17.378,0.364044189453125,-0.735015869140625,0.777618408203125,0.7267338881474927,-0.5686623926714476,0.364044189453125
338,17.428,0.475250244140625,-0.3963775634765625,0.3431854248046875,0.6545581754329622,-0.5760476525351125,0.475250244140625
339,17.478,0.441497802734375,-0.3534088134765625,0.5731201171875,0.8511809942224715,-0.5601573573900495,0.441497802734375
340,17.527,0.2913818359375,-0.573394775390625,1.0045166015625,0.8684719859099868,-0.49547696715114325,0.2913818359375
341,17.577,0.1308135986328125,-0.700531005859375,0.4288787841796875,0.5221381415841494,-0.4028602032144582,0.1308135986328125
342,17.627,0.128021240234375,-0.8165435791015625,-0.0566558837890625,-0.06921859048531358,-0.33489439125931064,0.128021240234375
343,17.677,-0.0659637451171875,-0.9065399169921875,-0.5662689208984375,-0.5297846275329021,-0.30105708243010915,-0.0659637451171875
344,17.727,-0.0087738037109375,-0.9605865478515625,-0.57073974609375,-0.5107977754482639,-0.29019175464570723,-0.0087738037109375
345,17.777,0.015167236328125,-0.8115386962890625,-0.5535736083984375,-0.5635117687821508,-0.29130963570107465,0.015167236328125
346,17.826,-0.1132354736328125,-0.655059814453125,-0.8896331787109375,-0.8052543610680993,-0.305913677975235,-0.1132354736328125
347,17.876,0.138427734375,-0.3997039794921875,-0.8026885986328125,-0.8951577071603799,-0.31734876059214545,0.138427734375
348,17.926,-0.0601654052734375,-0.5361785888671875,-1.113525390625,-0.9432749718250121,-0.36046909444355,0.1451362187383431
349,17.976,-0.06591796875,-0.298583984375,-1.103424072265625,-0.965283747761319,-0.3647442451857787,-0.06591796875
350,18.026,0.1791229248046875,-0.3559722900390625,-1.161102294921875,-0.9799194700660803,-0.3024016596995374,-0.0690954701710273
351,18.076,0.092132568359375,-0.34423828125,-1.024658203125,-0.9479353242266964,-0.2989322134511248,0.09213256835937501
352,18.125,0.140411376953125,-0.308013916015625,-1.0134735107421875,-0.9567880774607507,-0.3130502300670003,0.140411376953125
353,18.175,-0.041107177734375,-0.4177398681640625,-1.081268310546875,-0.9328047722924201,-0.33289899168124054,-0.041107177734375
354,18.225,-0.04315185546875,-0.38299560546875,-0.89202880859375,-0.9188846666160501,-0.31847435744831665,-0.04315185546875
355,18.275,-0.0325469970703125,-0.4110870361328125,-0.90264892578125,-0.9100654027872039,-0.3066114924329877,-0.0325469970703125
356,18.325,-0.0427398681640625,-0.3895111083984375,-0.8714141845703125,-0.9129478931206151,-0.31063126938935215,-0.0427398681640625
357,18.375,-0.0848388671875,-0.4215087890625,-0.850555419921875,-0.8960096850873123,-0.30788860997264667,-0.0848388671875
358,18.424,-0.091339111328125,-0.4296417236328125,-0.9000396728515625,-0.9024508932333859,-0.30289187523687305,-0.091339111328125
359,18.474,-0.0510406494140625,-0.420867919921875,-0.9015655517578125,-0.9061302403419512,-0.2954697898567113,-0.0510406494140625
360,18.524,-0.0288238525390625,-0.417999267578125,-0.9350738525390625,-0.9129358555466599,-0.2882701462581778,-0.0288238525390625
361,18.574,-0.030120849609375,-0.4299774169921875,-0.929351806640625,-0.9075704008013867,-0.28872218441290864,-0.030120849609375
362,18.624,-0.0017547607421875,-0.420135498046875,-0.8865966796875,-0.9036713245643772,-0.2862293946543045,-0.0017547607421875
363,18.674,0.0059051513671875,-0.41064453125,-0.917205810546875,-0.9127011419162605,-0.28476828224474,0.0059051513671875
364,18.723,-0.0236968994140625,-0.4239959716796875,-0.8956298828125,-0.9038353282043596,-0.29120644528955103,-0.0236968994140625
365,18.773,-0.0209808349609375,-0.4358062744140625,-0.8952484130859375,-0.8991244277703413,-0.2914489298540579,-0.0209808349609375
366,18.823,-0.0184783935546875,-0.4308319091796875,-0.936126708984375,-0.9084117329362698,-0.2896924689662569,-0.0184783935546875
367,18.873,-0.00811767578125,-0.44964599609375,-0.9267578125,-0.8996963615757568,-0.28751278907657263,-0.00811767578125
368,18.923,0.0273590087890625,-0.4436492919921875,-0.8568115234375,-0.8880183943258337,-0.27977290639616403,0.0273590087890625
369,18.973,-0.0282135009765625,-0.4795379638671875,-0.8449859619140625,-0.8697074157980895,-0.28382680308290004,-0.0282135009765625
370,19.022,0.06475830078125,-0.3633270263671875,-0.909210205078125,-0.9286023863403551,-0.27362863257470404,0.06475830078125
371,19.072,0.094696044921875,-0.365478515625,-0.9178924560546875,-0.9290613600621996,-0.2745920375062933,0.09469604492187501
372,19.122,0.08587646484375,-0.4654541015625,-0.880279541015625,-0.8840270997410848,-0.28851974033996386,0.08587646484375
373,19.172,0.0709686279296875,-0.3917083740234375,-0.92559814453125,-0.9209282728448774,-0.31960030882714113,0.0709686279296875
374,19.222,-0.072479248046875,-0.4259490966796875,-1.0167999267578125,-0.9223401761896369,-0.31618376443766805,-0.072479248046875
375,19.272,-0.298614501953125,-0.6619415283203125,-0.813079833984375,-0.7755001924048681,-0.3149840393540458,-0.298614501953125
376,19.321,-0.10693359375,-0.5561370849609375,-0.7061767578125,-0.7856239377806444,-0.3303599084278832,-0.10693359375
377,19.371,-0.0914154052734375,-0.51580810546875,-0.792266845703125,-0.838039962590515,-0.31799973806267917,-0.0914154052734375
378,19.421,-0.0428009033203125,-0.520538330078125,-0.8124237060546875,-0.8419949994073687,-0.30909801796172665,-0.0428009033203125
379,19.471,-0.071624755859375,-0.5465850830078125,-0.8210906982421875,-0.8324285081557012,-0.3114455371221862,-0.071624755859375
380,19.521,-0.078704833984375,-0.546142578125,-0.866912841796875,-0.8460970254859015,-0.3049615678345427,-0.078704833984375
381,19.571,-0.06414794921875,-0.5270843505859375,-0.8565216064453125,-0.851660921363,-0.30296453918835914,-0.06414794921875
382,19.62,-0.08642578125,-0.5625762939453125,-0.8394622802734375,-0.8307074804464792,-0.299442049332941,-0.08642578125
383,19.67,-0.050048828125,-0.5206298828125,-0.8625946044921875,-0.856144342731691,-0.29626813786279177,-0.050048828125
384,19.72,-0.1040191650390625,-0.5646820068359375,-0.839263916015625,-0.8296826046232003,-0.29557894924531253,-0.1040191650390625
385,19.77,-0.0667266845703125,-0.529144287109375,-0.8331756591796875,-0.8441468503639569,-0.29516121973740306,-0.0667266845703125
386,19.82,-0.091094970703125,-0.5406036376953125,-0.8369140625,-0.8399951703172083,-0.2907202346851139,-0.091094970703125
387,19.87,-0.0617218017578125,-0.50897216796875,-0.849212646484375,-0.8577403253375653,-0.2897003829598446,-0.0617218017578125
388,19.92,-0.062835693359375,-0.5270843505859375,-0.8170928955078125,-0.8403305456676067,-0.28742830787797347,-0.062835693359375
389,19.969,-0.0612640380859375,-0.5205078125,-0.8279876708984375,-0.8466096349603314,-0.2840307809382696,-0.0612640380859375
390,20.019,-0.0266265869140625,-0.5089263916015625,-0.813812255859375,-0.8478607379641595,-0.284225911945797,-0.0266265869140625
391,20.069,-0.043121337890625,-0.534454345703125,-0.8170318603515625,-0.8368564354210382,-0.2828314580631206,-0.043121337890625
392,20.119,-0.02667236328125,-0.504302978515625,-0.83837890625,-0.8569171655256472,-0.2829203507753718,-0.02667236328125
393,20.169,-0.0449066162109375,-0.5192718505859375,-0.848358154296875,-0.8529099937897904,-0.274257094940294,-0.0449066162109375
394,20.219,-0.0908203125,-0.5521392822265625,-0.8762359619140625,-0.8460433414557079,-0.2586667429178839,-0.0908203125
395,20.268,-0.0407867431640625,-0.4488983154296875,-0.95281982421875,-0.9046311443168147,-0.24853774679017887,-0.0407867431640625
396,20.318,-0.0182037353515625,-0.386260986328125,-0.99603271484375,-0.9323473560626465,-0.2520716531663153,-0.0182037353515625
397,20.368,-0.0156097412109375,-0.4174346923828125,-0.953277587890625,-0.9160246973662833,-0.24179373853626343,-0.0156097412109375
398,20.418,-0.023193359375,-0.4212646484375,-0.961395263671875,-0.9159283086761086,-0.226456738814389,-0.023193359375
399,20.468,-0.0179901123046875,-0.42462158203125,-0.8753509521484375,-0.8997297596131535,-0.21493577224906502,-0.0179901123046875
400,20.518,-0.0399932861328125,-0.4619140625,-0.848602294921875,-0.8783128989231828,-0.20750858161290134,-0.0399932861328125
401,20.567,-0.0352630615234375,-0.46978759765625,-0.8659820556640625,-0.878988286333169,-0.2042979906564398,-0.0352630615234375
402,20.617,-0.0411224365234375,-0.4854278564453125,-0.8484344482421875,-0.867974999989495,-0.20262073126175698,-0.0411224365234375
403,20.667,0.000152587890625,-0.463897705078125,-0.8765869140625,-0.8838620048063955,-0.20159128654671368,0.000152587890625
404,20.717,0.007568359375,-0.4669342041015625,-0.85784912109375,-0.878318540388629,-0.2024486575246251,0.007568359375
405,20.767,-0.02386474609375,-0.42529296875,-0.8673553466796875,-0.8978721209046006,-0.2162323216650832,-0.02386474609375
406,20.817,-0.0273284912109375,-0.4807586669921875,-0.9348297119140625,-0.8892920191779258,-0.2151906674139128,-0.0273284912109375
407,20.866,-0.0014190673828125,-0.44097900390625,-0.897308349609375,-0.8974767517179573,-0.21325895608301176,-0.0014190673828125
408,20.916,0.0079498291015625,-0.4622039794921875,-0.8425750732421875,-0.876748051872469,-0.22022072980388302,0.0079498291015625
409,20.966,0.0044403076171875,-0.4677276611328125,-0.859527587890625,-0.8783700908897957,-0.22176000360921405,0.0044403076171875
410,21.016,-0.018218994140625,-0.45880126953125,-0.8692779541015625,-0.8843781665995994,-0.23210393521135436,-0.018218994140625
411,21.066,0.0071868896484375,-0.4314422607421875,-0.887786865234375,-0.8994159685751075,-0.24303302158661497,0.0071868896484375
412,21.116,-0.0310516357421875,-0.4429168701171875,-0.9183197021484375,-0.9007089746871224,-0.2512274053456156,-0.0310516357421875
413,21.165,-0.083343505859375,-0.509033203125,-0.9028778076171875,-0.8710950710218301,-0.2560276042272235,-0.083343505859375
414,21.215,-0.0536041259765625,-0.4951171875,-0.880218505859375,-0.8715779581411397,-0.26247584919934397,-0.0536041259765625
415,21.265,-0.0570831298828125,-0.4788055419921875,-0.8772125244140625,-0.8777584141095858,-0.2664559240932398,-0.05708312988281249
416,21.315,-0.0556793212890625,-0.4642791748046875,-0.884033203125,-0.8853312284960136,-0.2699622677764149,-0.05567932128906249
417,21.365,-0.0550537109375,-0.47357177734375,-0.847015380859375,-0.8728382967027509,-0.27825955149188036,-0.0550537109375
418,21.415,-0.0494842529296875,-0.4700469970703125,-0.8353729248046875,-0.8715087832840076,-0.2848806570290967,-0.0494842529296875
419,21.464,-0.0665130615234375,-0.494232177734375,-0.869659423828125,-0.8694103912570929,-0.2894189385041757,-0.0665130615234375
420,21.514,-0.0835723876953125,-0.5235748291015625,-0.8349151611328125,-0.8471979505143751,-0.2920956952690974,-0.0835723876953125
421,21.564,-0.079437255859375,-0.520050048828125,-0.870452880859375,-0.8584580585653845,-0.2993110204902647,-0.079437255859375
422,21.614,-0.0690155029296875,-0.504364013671875,-0.8847503662109375,-0.8687534835966289,-0.30373573605050574,-0.0690155029296875
423,21.664,-0.098785400390625,-0.5321197509765625,-0.86480712890625,-0.8516887568906947,-0.30774628253165626,-0.098785400390625
424,21.714,-0.0986785888671875,-0.5246124267578125,-0.8272705078125,-0.8445077193165409,-0.30968366875843595,-0.09867858886718751
425,21.763,-0.0712432861328125,-0.473419189453125,-0.8681182861328125,-0.8779380303558384,-0.3160773448734771,-0.0712432861328125
426,21.813,-0.174102783203125,-0.5464630126953125,-0.95404052734375,-0.8677345229063441,-0.3276432631136509,-0.174102783203125
