index,time,acc x,acc y,acc z,sin ori x,sin ori y,sin ori z
0,0,-0.0745849609375,0.0181732177734375,-1.02020263671875,-0.9998413801840356,0,-0.07290188952751936
1,0.05,-0.08648681640625,0.0078125,-0.99700927734375,-0.9999693004742356,-0.0013370396311004503,-0.08648681640625
2,0.099,-0.0906219482421875,0.00946044921875,-0.99322509765625,-0.9999546404641485,-0.0014634597595709474,-0.0906219482421875
3,0.149,-0.0915679931640625,0.0041351318359375,-0.9953155517578125,-0.9999913697868357,-0.0007042063400191573,-0.0915679931640625
4,0.199,-0.0884857177734375,0.0072021484375,-0.9956817626953125,-0.9999738401051822,0.0005505419407393134,-0.0884857177734375
5,0.249,-0.0583343505859375,-0.02337646484375,-1.015167236328125,-0.9997349792883775,-0.017651580728645352,-0.0583343505859375
6,0.299,-0.0600433349609375,-0.023193359375,-1.0843048095703125,-0.999771310853756,-0.01652324438463805,-0.06004333496093749
7,0.349,-0.0504913330078125,0.0152740478515625,-0.9332427978515625,-0.9998660934672725,-0.007753796257167976,-0.0504913330078125
8,0.398,-0.0530853271484375,0.162506103515625,-1.0413818359375,-0.9880423768142482,0.02207418674539058,-0.0530853271484375
9,0.448,-0.0734405517578125,0.108062744140625,-1.1644287109375,-0.9957213975104943,0.059472578875885265,-0.0734405517578125
10,0.498,-0.0789337158203125,0.1220855712890625,-1.0776214599609375,-0.9936436180618041,0.08402726524159532,-0.0789337158203125
11,0.548,-0.076568603515625,0.0677490234375,-1.2084503173828125,-0.9978638159478365,0.0842852062032549,-0.06681073667257742
12,0.598,-0.0741119384765625,0.0087890625,-1.1034393310546875,-0.9999682796824921,0.09877749192457717,-0.0741119384765625
13,0.648,-0.04595947265625,-0.04345703125,-1.1127777099609375,-0.9992383124413279,0.11041545601634342,-0.04595947265625
14,0.697,0.0247039794921875,-0.10357666015625,-1.092803955078125,-0.9955383530419152,0.13352108505847526,0.0247039794921875
15,0.747,-0.0244903564453125,-0.20550537109375,-0.901214599609375,-0.9749727149135938,0.14456886179262893,-0.0244903564453125
16,0.797,0.083251953125,-0.24078369140625,-0.9404296875,-0.968751076341672,0.15520323549878864,0.083251953125
17,0.847,0.1544189453125,-0.2889251708984375,-0.8635101318359375,-0.9483240773900494,0.17354991501932476,0.1544189453125
18,0.897,0.126312255859375,-0.3654327392578125,-0.7781219482421875,-0.90515109653397,0.20200478996047813,0.126312255859375
19,0.947,0.233642578125,-0.4227294921875,-0.751983642578125,-0.8717049395523618,0.22205812353046234,0.233642578125
20,0.997,0.326446533203125,-0.462860107421875,-0.8196563720703125,-0.8707556900810326,0.22067066669651317,0.326446533203125
21,1.046,0.20428466796875,-0.5513153076171875,-0.72833251953125,-0.7973301275133521,0.20953523368791946,0.20428466796875
22,1.096,0.0984039306640625,-0.5766754150390625,-0.6176605224609375,-0.7309417673065035,0.22033939398616867,0.0984039306640625
23,1.146,0.0042572021484375,-0.623748779296875,-0.6336669921875,-0.7126621109886861,0.22600023741266437,0.0042572021484375
24,1.196,-0.079986572265625,-0.6755218505859375,-0.6103363037109375,-0.6703996926690136,0.261317585016151,-0.079986572265625
25,1.246,0.1101531982421875,-0.657135009765625,-0.43231201171875,-0.5496043877696211,0.29787671777581376,0.1101531982421875
26,1.296,0.2950592041015625,-0.61566162109375,-0.5432586669921875,-0.6616406907393148,0.3439271939340035,0.2950592041015625
27,1.345,0.12518310546875,-0.6441497802734375,-0.639312744140625,-0.7044368771270565,0.39690315622011246,0.12518310546875
28,1.395,0.24603271484375,-0.6301116943359375,-0.82080078125,-0.7932183867432097,0.3846682306999612,0.24603271484375
29,1.445,-0.1280670166015625,-0.658721923828125,-0.711181640625,-0.7336473160792558,0.33493081846279626,-0.1280670166015625
30,1.495,0.249114990234375,-0.50189208984375,-0.844085693359375,-0.8595344121948493,0.32704691880109776,0.249114990234375
31,1.545,0.179656982421875,-0.5336151123046875,-0.889007568359375,-0.8574033161785526,0.26157735321415787,0.179656982421875
32,1.595,0.408294677734375,-0.475494384765625,-0.896331787109375,-0.8833940002911864,0.19565333092084536,0.40829467773437506
33,1.644,-0.2853240966796875,-0.675048828125,-0.57012939453125,-0.6452390596370803,0.13729101834736257,-0.2853240966796875
34,1.694,0.161529541015625,-0.641937255859375,-0.7433624267578125,-0.7568520008427438,0.14210881674929735,0.161529541015625
35,1.744,-0.3289337158203125,-0.9127349853515625,-0.7130126953125,-0.7571352220052747,0.11621893626648239,0.1359124491187538
36,1.794,-0.1588897705078125,-0.8367919921875,-0.95074462890625,-0.7344897450319617,0.1449769357068851,0.08603326719144279
37,1.844,-0.125152587890625,-0.8063201904296875,-0.7790985107421875,-0.694863320947762,0.10607649282284375,-0.125152587890625
38,1.894,-0.3795318603515625,-0.6843109130859375,-1.6212005615234375,-0.543880173227469,0.06989313167790312,-0.16473845648481258
39,1.943,0.262908935546875,-0.5810394287109375,-0.82763671875,-0.8184442771331623,0.12484579181231237,0.262908935546875
40,1.993,0.153045654296875,-0.7270965576171875,-0.1260986328125,-0.17087692266277044,0.045185153721772904,0.153045654296875
41,2.043,0.251220703125,-0.660491943359375,0.146331787109375,0.2163047044992897,0.02692246590375552,0.251220703125
42,2.093,0.3769683837890625,-0.510406494140625,0.3671112060546875,0.5839050614517148,0.04157627188741672,0.3769683837890625
43,2.143,0.3458709716796875,-0.610565185546875,0.1775970458984375,0.27929776203489504,0.026614462024270577,0.3458709716796875
44,2.193,-0.0146026611328125,-0.89593505859375,0.002655029296875,0.002963404114463635,0.01389374633688051,-0.0146026611328125
45,2.242,-0.219024658203125,-1.0843505859375,-0.1175994873046875,-0.10781931903052087,0.0196283431591393,-0.21902465820312503
46,2.292,-0.411956787109375,-1.168212890625,-0.324310302734375,-0.14316520783788664,0.07886211389019572,-0.12793486181170713
47,2.342,-0.4361419677734375,-1.1546630859375,-0.140045166015625,-0.11334338679154701,0.12490806235605233,-0.0902819241405336
48,2.392,-0.4393768310546875,-1.110382080078125,0.1597442626953125,-0.1254919862219283,0.161645400356904,-0.08658779229496341
49,2.442,-0.36627197265625,-0.921356201171875,-0.3350982666015625,-0.3417967974287988,0.25954855761377804,-0.36627197265625
50,2.492,-0.2477874755859375,-0.98101806640625,-0.100616455078125,-0.1020280802782578,0.32394208107466294,-0.2477874755859375
51,2.541,-0.2779388427734375,-1.002105712890625,-0.164276123046875,-0.16177166869259713,0.2615633286070124,-0.2779388427734375
52,2.591,-0.131256103515625,-0.985107421875,0.002532958984375,0.0025712430492874604,0.20784320277985913,-0.131256103515625
53,2.641,-0.13104248046875,-0.915679931640625,-0.020721435546875,-0.022623769698111335,0.17918754423526045,-0.13104248046875
54,2.691,-0.017486572265625,-0.720611572265625,0.003021240234375,0.004192568919801889,0.1519329826383825,-0.017486572265625
55,2.741,0.0111541748046875,-0.758453369140625,0.072418212890625,0.09504914638113232,0.13631464738272658,0.0111541748046875
56,2.791,-0.1784210205078125,-0.9768829345703125,0.24163818359375,0.24011951428145267,0.15819954682624815,-0.17842102050781247
57,2.841,-0.274017333984375,-1.0315093994140625,0.186798095703125,0.17819369619381822,0.23295468616886103,-0.274017333984375
58,2.89,-0.2381591796875,-0.9351654052734375,0.1232757568359375,0.1306917748351649,0.31668306726256695,-0.2381591796875
59,2.94,-0.347991943359375,-1.086883544921875,0.023162841796875,0.021306407454318204,0.39337956371346483,-0.347991943359375
60,2.99,-0.5388946533203125,-1.5523223876953125,0.032501220703125,0.032004971973652485,0.42258520729421556,-0.32715767856138467
61,3.04,-0.644012451171875,-1.462615966796875,0.130279541015625,0.03879214961109723,0.4530250250499061,-0.3360822459346113
62,3.09,-0.52020263671875,-1.145843505859375,0.106689453125,0.02015257472778177,0.4732953872452818,-0.34046167350306783
63,3.14,-0.6041259765625,-0.981353759765625,-0.0554351806640625,-0.05639856761718157,0.4769669044586869,-0.6041259765625
64,3.189,-0.4618377685546875,-0.88275146484375,0.1486663818359375,0.16607381115659683,0.4979029986068575,-0.4618377685546875
65,3.239,-0.50531005859375,-0.8265380859375,-0.117523193359375,-0.14077138671475228,0.5171212596154426,-0.50531005859375
66,3.289,-0.4488372802734375,-0.850921630859375,0.0215606689453125,0.025329889798883787,0.5358079637197302,-0.4488372802734375
67,3.339,-0.6446380615234375,-1.1000213623046875,0.0998687744140625,0.05723954860010614,0.5516522065320028,-0.42924973062245825
68,3.389,-0.60821533203125,-1.17669677734375,0.0904388427734375,0.09302746285576889,0.5724429199526302,-0.4374275885277792
69,3.439,-0.39739990234375,-1.0679779052734375,-0.088470458984375,-0.08255644144014622,0.5936916542225651,-0.39739990234375
70,3.488,-0.391693115234375,-0.9664306640625,-0.3184051513671875,-0.31291925127993736,0.6107124805979978,-0.391693115234375
71,3.538,-0.345611572265625,-0.851104736328125,-0.0301513671875,-0.03540394445266962,0.6716154778283139,-0.345611572265625
72,3.588,-0.4665679931640625,-0.7992706298828125,0.2285919189453125,0.27497566347794955,0.744981879737839,-0.46656799316406256
73,3.638,-0.3395233154296875,-0.7387847900390625,0.387725830078125,0.46470593869415033,0.7838017967564952,-0.3395233154296875
74,3.688,-0.15533447265625,-0.53790283203125,0.3047332763671875,0.49291666562822123,0.8292178499270801,-0.15533447265625
75,3.738,0.0130157470703125,-0.474334716796875,0.3964691162109375,0.6413198939991792,0.8620490595352045,0.0130157470703125
76,3.787,-0.0517578125,-0.606903076171875,0.7318878173828125,0.7697725776262098,0.8787805167146067,-0.0517578125
77,3.837,-0.40338134765625,-0.753631591796875,0.7132415771484375,0.6873762364999303,0.872191929767149,-0.40338134765625
78,3.887,-0.37567138671875,-0.6346588134765625,0.60595703125,0.6905630076345558,0.8552373858044287,-0.37567138671875
79,3.937,-0.46771240234375,-0.603759765625,0.514739990234375,0.6487776321508507,0.8392804226699246,-0.46771240234375
80,3.987,-0.334503173828125,-0.599822998046875,0.4696044921875,0.6164529955219774,0.827667295351147,-0.33450317382812506
81,4.037,-0.2532196044921875,-0.5866241455078125,0.5132904052734375,0.6585004502288517,0.829795038129188,-0.2532196044921875
82,4.086,-0.5774383544921875,-0.8255615234375,0.576690673828125,0.5726607343135578,0.8271086615732827,-0.5774383544921875
83,4.136,-0.4110260009765625,-0.8943939208984375,0.744476318359375,0.5202168483180748,0.8578702695441806,-0.621466263898539
84,4.186,-0.1241912841796875,-0.7503814697265625,0.45318603515625,0.5169740338845658,0.8890455272498586,-0.1241912841796875
85,4.236,-0.0924530029296875,-0.6829833984375,0.3197021484375,0.42394858143481434,0.9228365284736666,-0.0924530029296875
86,4.286,0.073455810546875,-0.5753326416015625,0.291351318359375,0.45177901828201866,0.9608681785089355,0.073455810546875
87,4.336,0.0716705322265625,-0.786956787109375,0.3914031982421875,0.445323735361355,0.9741279587522519,0.0716705322265625
88,4.385,-0.0735321044921875,-1.1960601806640625,0.407501220703125,0.48982023426939447,0.9806009675233893,0.08842693650855522
89,4.435,-0.6767578125,-1.4766693115234375,0.400115966796875,0.5369148113606097,0.991375701659854,0.0573754567120506
90,4.485,-0.495361328125,-1.206024169921875,0.5821533203125,0.5557430195169148,0.999226349024107,-0.013811724192329476
91,4.535,-0.22467041015625,-0.7744903564453125,0.381744384765625,0.4421098259082163,0.9994315314653833,-0.22467041015625
92,4.585,0.2024383544921875,-0.337188720703125,0.3402862548828125,0.7103323725346125,0.9952463767181061,0.2024383544921875
93,4.635,0.4068145751953125,-0.394287109375,0.4993438720703125,0.7848305821789776,0.9891487770586094,0.4068145751953125
94,4.684,0.05169677734375,-1.1805877685546875,0.3555908203125,0.7521837758777264,0.9767104979557626,0.4172014116069866
95,4.734,-0.6142425537109375,-1.838409423828125,0.1619720458984375,0.7863843246670779,0.9690097678623851,0.38948970781931114
96,4.784,-0.0448760986328125,-0.807861328125,0.5859375,0.5871239023998314,0.9626839302450301,-0.0448760986328125
97,4.834,0.448516845703125,-0.10687255859375,0.171783447265625,0.8490896810266058,0.9658852191009516,0.448516845703125
98,4.884,0.8990020751953125,0.415008544921875,0.479278564453125,0.7559748942801708,0.977990808115624,0.8990020751953125
99,4.934,-0.047637939453125,-0.9636383056640625,0.7943115234375,0.7939526563273264,0.9777846123893523,0.9256296330999915
100,5.002,-1.1131591796875,-3.7326507568359375,1.2467193603515625,0.7832848871436069,0.9764445857580312,0.9142415007218178
101,5.055,0.803131103515625,-0.5510101318359375,0.289154052734375,0.4646748227236595,0.9734121882506915,0.803131103515625
102,5.413,-2.5954437255859375,-0.057891845703125,0.72662353515625,0.5083812352299177,0.9968310400614699,0.6555736265837614
103,5.463,-0.5553741455078125,0.162322998046875,1.0080718994140625,0.9872825397317959,0.9999447548120923,-0.5553741455078125
104,5.513,0.92730712890625,0.3161773681640625,1.286651611328125,0.9992567646813858,0.9988891787892888,-0.710125325759934
105,5.563,1.120941162109375,-0.0594329833984375,0.753265380859375,0.9941202989302204,0.9920667632706845,-0.783659612993991
106,5.613,1.2619171142578125,0.13287353515625,1.049896240234375,0.9659217554516635,0.9805951347260047,-0.8317304297135368
107,5.663,1.0137786865234375,0.5843353271484375,0.1759796142578125,0.2883685186339221,0.9412546292893587,NaN
108,5.712,0.690093994140625,0.1237945556640625,0.81268310546875,0.988596140530199,0.9268553948114951,0.690093994140625
109,5.762,0.0950927734375,-1.3801422119140625,0.3911895751953125,0.9962995089644331,0.890618388101182,0.8024750425442172
110,5.831,-0.226715087890625,-2.0950469970703125,1.142425537109375,0.9907680007557212,0.8528954008245493,0.7723625517599402
111,5.881,0.4449920654296875,-0.9491119384765625,0.2945556640625,0.29640259551748127,0.8116332049536826,0.4449920654296875
112,5.93,0.6893157958984375,-0.3189697265625,0.049591064453125,0.15362700714373811,0.7734701281647421,0.6893157958984375
113,5.98,0.8650360107421875,-0.0615386962890625,0.193939208984375,0.9531657971804862,0.7668576139225258,0.8650360107421875
114,6.03,0.9605865478515625,-0.2979888916015625,0.177703857421875,0.5121849678463878,0.7614315050813697,0.9605865478515625
115,6.08,-0.1050567626953125,-1.546539306640625,0.109405517578125,0.5615283329194022,0.7649695570952141,0.9861877767231781
116,6.13,0.042083740234375,-1.6909027099609375,0.59259033203125,0.5678371413951662,0.7590683813211202,0.9715525791193497
117,6.18,0.603515625,-0.432647705078125,0.0840911865234375,0.19079367357236096,0.7568873708769338,0.603515625
118,6.229,1.013214111328125,0.1927032470703125,0.0027923583984375,0.014488937402817894,0.7813496306402316,NaN
119,6.279,0.8012847900390625,0.10064697265625,0.3380126953125,0.9584148939486364,0.8308027663644504,0.8012847900390625
120,6.329,0.242034912109375,-1.1548919677734375,0.26318359375,0.9590274559454266,0.8426731505863578,0.8650314382178136
121,6.379,-1.3192901611328125,-3.778533935546875,0.9375762939453125,0.9178429044504627,0.8669250944032327,0.8273160334278106
122,6.429,0.444091796875,-1.3718109130859375,1.01727294921875,0.9690603379127682,0.8966975742994434,0.6949895818418867
123,6.479,1.42535400390625,0.53314208984375,0.2350311279296875,0.9320224691897222,0.9491241149146045,0.5874337828751309
124,6.528,2.3490447998046875,0.95220947265625,0.5767364501953125,0.8472523811621135,0.974435431388066,0.5795155887170835
125,6.578,3.326202392578125,1.349029541015625,1.0008697509765625,0.6570910217337577,0.9996301902308209,0.616610143132504
126,6.628,0.9714202880859375,2.198516845703125,0.91497802734375,0.6366074626991427,0.9959412701018211,0.8369411389746059
127,6.678,-6.646453857421875,-0.157928466796875,-0.7252197265625,0.6591318693863776,0.9719048587536928,0.9780023416664759
128,6.728,-2.9893341064453125,-1.8539581298828125,-0.288818359375,0.5669998842243391,0.9624730841833362,0.9986456985374959
129,6.778,-2.3375244140625,-1.0321197509765625,1.0348663330078125,0.6873310258172484,0.9770961917224414,0.9576491921189673
130,6.828,-2.8173065185546875,-0.4259796142578125,0.0335540771484375,0.6470845117697933,0.99731269546534,0.8696130776405538
131,6.877,-1.1616668701171875,-0.000335693359375,1.08929443359375,0.699401773610517,0.9999216766975352,0.7416687140922242
132,6.927,0.0889434814453125,0.02166748046875,1.1436767578125,0.9998205830996904,0.9985745749796843,0.0889434814453125
133,6.977,0.6528472900390625,0.24176025390625,1.0478973388671875,0.9966970276372904,0.9960303574095107,-0.010793683719040624
134,7.027,0.7939605712890625,0.0167388916015625,0.6689300537109375,0.9996870621579254,0.9847118194485072,0.7939605712890625
135,7.077,0.9781494140625,-0.0029449462890625,0.6651153564453125,0.9999901977804576,0.9770555836206078,0.9781494140625
136,7.127,0.7700653076171875,-0.4200439453125,0.56915283203125,0.8046045077272379,0.9662602382251471,0.7700653076171875
137,7.176,0.282562255859375,-0.6250762939453125,0.8671722412109375,0.811218264647987,0.9658277722786048,0.282562255859375
138,7.226,0.264739990234375,-0.6641693115234375,0.7529296875,0.7499269959895493,0.9554227726215803,0.264739990234375
139,7.276,0.46197509765625,-0.3326263427734375,0.6163177490234375,0.8800159573322571,0.9433610942489744,0.46197509765625
140,7.326,0.56341552734375,-0.051177978515625,0.5992431640625,0.9963728775997829,0.9151744785812813,0.56341552734375
141,7.376,0.48822021484375,0.050750732421875,0.4750213623046875,0.9943411301064634,0.8969244327189414,0.48822021484374994
142,7.426,0.1954345703125,-1.1875,0.158050537109375,0.9950403226241789,0.8543959818470971,0.6440060135195259
143,7.475,-0.68707275390625,-2.6078338623046875,0.5647430419921875,0.9941546462022681,0.8267934919040706,0.680819873571254
144,7.525,0.488494873046875,-1.1951904296875,0.4171142578125,0.9987532910947499,0.8033186961079296,0.6464651639255997
145,7.575,0.90948486328125,-0.28546142578125,-0.38958740234375,-0.8066379560358511,0.7680717560220227,0.90948486328125
146,7.625,0.8353424072265625,-0.1536407470703125,0.19244384765625,0.78149108506799,0.7688818835085715,0.8353424072265625
147,7.675,0.8364410400390625,-0.1836395263671875,0.4978485107421875,0.9382075429447615,0.7669166158801266,0.8364410400390625
148,7.725,0.376739501953125,-0.8595733642578125,0.4340057373046875,0.45071535546715696,0.780470634674696,0.376739501953125
149,7.774,-0.60198974609375,-2.546356201171875,0.64239501953125,0.505960107648988,0.7728629985667542,0.4220925090115616
150,7.824,0.2205963134765625,-1.869384765625,1.464996337890625,0.4595711411373763,0.8003669121818133,0.34841746680722885
151,7.874,1.040496826171875,-0.597015380859375,0.2308807373046875,0.5108119107599952,0.7945122120064482,0.31395917782538507
152,7.924,1.1544647216796875,0.10791015625,0.7443389892578125,0.6840475265626271,0.8205540712957332,0.34594203726465905
153,7.974,0.50811767578125,0.0184478759765625,0.94384765625,0.9998090434628619,0.8339323996107323,0.50811767578125
154,8.024,-0.280303955078125,0.103424072265625,0.294586181640625,0.9435394277661828,0.8405297628600498,-0.280303955078125
155,8.073,-1.4188079833984375,-0.0929107666015625,1.0138702392578125,0.8965989354370042,0.8682543842325058,-0.14508048495362752
156,8.123,-6.0033721923828125,-1.173675537109375,-1.41064453125,0.7944959526849479,0.9551876618229345,-0.0667100861031223
157,8.173,-1.9252471923828125,-0.5203399658203125,1.070037841796875,0.7987272260738155,0.9999831585804069,0.1228209570890682
158,8.223,-1.0738372802734375,0.0899658203125,0.327117919921875,0.9641990681643815,0.9901372404683532,NaN
159,8.273,-0.131317138671875,-0.2064971923828125,-0.0584716796875,-0.2724479045230086,0.9307481414659576,-0.131317138671875
160,8.323,-1.2830810546875,-0.356109619140625,0.1892547607421875,-0.28808412920951426,0.877067966018386,-0.11640338864974553
161,8.372,-1.9350433349609375,-0.7958831787109375,1.0182952880859375,-0.394479247441358,0.8245141284498441,-0.24811841753951958
162,8.422,-0.7477569580078125,-0.54876708984375,0.4683685302734375,0.6491892700866452,0.7583580774422687,-0.7477569580078125
163,8.472,-0.1180877685546875,-0.4051971435546875,0.3830108642578125,0.6869312462321961,0.7133758400793433,-0.1180877685546875
164,8.522,0.5451202392578125,-0.4962310791015625,0.565216064453125,0.7514772682208722,0.6872810159546734,0.5451202392578125
165,8.572,0.47198486328125,-0.5172271728515625,0.4303131103515625,0.6395618267556922,0.7194828656464518,0.47198486328125
166,8.622,-0.1139678955078125,-1.0722808837890625,0.36572265625,0.3228102162573065,0.7333494850941414,-0.1139678955078125
167,8.671,-0.0004425048828125,-1.15203857421875,0.854522705078125,0.357502941609911,0.8072151727577364,-0.15078391668965757
168,8.721,-0.061126708984375,-0.9437103271484375,0.4189605712890625,0.4057613622639799,0.7893107933482361,-0.061126708984375
169,8.771,0.373626708984375,-0.4266357421875,0.6751861572265625,0.8453744809781353,0.7683098652896051,0.373626708984375
170,8.821,0.44427490234375,-0.415924072265625,0.4318084716796875,0.7202297803465232,0.7368174654427604,0.44427490234375
171,8.871,0.486785888671875,-0.3865814208984375,0.5779266357421875,0.8311883506717377,0.7263612840814798,0.486785888671875
172,8.921,0.355438232421875,-0.9425506591796875,0.1308135986328125,0.13746917369881922,0.6822652538456615,0.355438232421875
173,8.971,-0.0739593505859375,-1.900360107421875,0.5506744384765625,0.14864669393385072,0.6878425919552611,0.3707439766310238
174,9.02,0.0921478271484375,-1.47589111328125,0.4742279052734375,0.11664817811009494,0.689998421784797,0.3621912710443763
175,9.07,0.2518310546875,-0.738800048828125,0.137939453125,0.1835358278304668,0.7122195068327472,0.2518310546875
176,9.12,0.41357421875,-0.362579345703125,0.129974365234375,0.33744539956655295,0.7598089433806836,0.41357421875
177,9.17,0.4693450927734375,-0.411346435546875,0.3403472900390625,0.6374817273797232,0.7922544922010127,0.4693450927734375
178,9.22,0.492889404296875,-0.8289642333984375,0.1449432373046875,0.17223562595973302,0.8273561002790777,0.492889404296875
179,9.27,0.0555419921875,-1.4783477783203125,-0.1395111083984375,0.09914210839682466,0.8938158901327706,0.5620895403799975
180,9.319,0.0013580322265625,-1.4004669189453125,0.06622314453125,-0.007293401444944753,0.9391224950969429,0.599809485555132
181,9.369,-0.145050048828125,-1.12359619140625,-0.2484283447265625,-0.21588715665677669,0.9691991319579583,-0.145050048828125
182,9.419,-0.1383514404296875,-0.82049560546875,-0.41796875,-0.45390890135810896,0.9801135417593624,-0.1383514404296875
183,9.469,-0.0879669189453125,-0.767059326171875,-0.454681396484375,-0.5099083950117673,0.9979376928999856,-0.0879669189453125
184,9.519,-0.032989501953125,-0.69219970703125,-0.2534942626953125,-0.34388117901009707,0.9997812769585984,-0.032989501953125
185,9.569,-0.1074981689453125,-0.77740478515625,-0.450653076171875,-0.5015168048547392,0.9975747499012744,-0.1074981689453125
186,9.618,-0.7531585693359375,-0.31097412109375,-0.7156524658203125,-0.9171539767630957,0.9956554399416926,-0.7531585693359375
187,9.668,-0.3114013671875,-0.3248291015625,-1.0792999267578125,-0.9575721703937636,0.9819334962448629,-0.3114013671875
188,9.718,-0.349029541015625,-0.4194183349609375,-0.9555206298828125,-0.9156717267816158,0.9755343063296879,-0.349029541015625
189,9.768,-0.2087860107421875,-0.329376220703125,-0.93048095703125,-0.9426811310731084,0.9756778498821183,-0.2087860107421875
190,9.818,-0.2027740478515625,-0.2275390625,-0.985870361328125,-0.9743845867377339,0.974136980494696,-0.2027740478515625
191,9.868,-0.126617431640625,-0.200347900390625,-0.9831390380859375,-0.9798611776471507,0.9758668468976034,-0.126617431640625
192,9.917,-0.3050384521484375,-0.260498046875,-0.836822509765625,-0.9548071586082176,0.9777038561073721,-0.3050384521484375
193,9.967,-0.296539306640625,-0.3214874267578125,-0.9586029052734375,-0.9481021859805242,0.9819856519594784,-0.296539306640625
194,10.017,-0.4822845458984375,-0.272735595703125,-0.83807373046875,-0.950913380947633,0.9865146938789287,-0.4822845458984375
195,10.067,-0.5115966796875,-0.274017333984375,-1.216583251953125,-0.947602668547553,0.9907722604232885,-0.5147510865741322
196,10.117,-0.2332763671875,-0.2457275390625,-0.9647674560546875,-0.9690610570609184,0.9887379786186054,-0.2332763671875
197,10.167,-0.14471435546875,-0.207733154296875,-1.0971527099609375,-0.9825434550998563,0.9821438255809432,-0.14471435546875
198,10.216,-0.1187286376953125,-0.2179107666015625,-0.9850921630859375,-0.9763962066224438,0.9797141491295388,-0.1187286376953125
199,10.266,-0.26202392578125,-0.272003173828125,-0.83807373046875,-0.9511576932648087,0.9857865179415835,-0.26202392578125
200,10.316,-0.28302001953125,-0.234222412109375,-0.9007415771484375,-0.9678147603097279,0.9916618537787324,-0.28302001953125
201,10.366,-0.3097686767578125,-0.2931671142578125,-1.0167236328125,-0.9608534207172671,0.9940057601413664,-0.3097686767578125
202,10.416,-0.1768035888671875,-0.343963623046875,-0.79498291015625,-0.9177782729814732,0.9954494399273239,-0.1768035888671875
203,10.466,-0.0718536376953125,-0.4019622802734375,-0.8656768798828125,-0.9069926109658862,0.9971761755674668,-0.0718536376953125
204,10.515,-0.0834197998046875,-0.250244140625,-1.0062713623046875,-0.9704421251875214,0.9990662755294996,-0.0834197998046875
205,10.565,-0.1290130615234375,-0.25506591796875,-1.04541015625,-0.9715015458085393,0.9996967321249629,-0.1290130615234375
206,10.615,-0.0917510986328125,-0.2589263916015625,-0.9052734375,-0.9614462446112055,0.9994901261881307,-0.0917510986328125
207,10.665,-0.0791168212890625,-0.30145263671875,-0.8043975830078125,-0.9364043440704461,0.9994823896614631,-0.0791168212890625
208,10.715,-0.2841796875,-0.397308349609375,-0.836029052734375,-0.9031960313585425,0.9999470127515105,-0.2841796875
209,10.765,-0.172332763671875,-0.29693603515625,-1.0471038818359375,-0.9620648662165076,0.999947816125149,-0.172332763671875
210,10.815,-0.17510986328125,-0.32122802734375,-0.99249267578125,-0.9514087288563476,0.999951023401867,-0.17510986328125
211,10.864,-0.13519287109375,-0.2496337890625,-0.9535369873046875,-0.9673976034086819,0.9999891190643408,-0.13519287109375
212,10.914,-0.13055419921875,-0.209747314453125,-0.9692230224609375,-0.9773754933389499,0.999691741917497,-0.13055419921875
213,10.964,-0.11370849609375,-0.217010498046875,-0.8975372314453125,-0.9719923290619324,0.9987580654290475,-0.11370849609375
214,11.014,-0.2142486572265625,-0.2125091552734375,-1.01446533203125,-0.9787559428335815,0.9984643273603203,-0.2142486572265625
215,11.064,-0.199798583984375,-0.1461944580078125,-1.1183319091796875,-0.9915634044782059,0.9985237448800193,-0.199798583984375
216,11.114,-0.23358154296875,-0.1891021728515625,-0.9970855712890625,-0.9824865717643486,0.9976626180489325,-0.23358154296875
217,11.163,-0.201629638671875,-0.2133636474609375,-0.834136962890625,-0.9688083447823017,0.9962900255750825,-0.201629638671875
218,11.213,-0.1784515380859375,-0.193634033203125,-0.885833740234375,-0.976932720960985,0.9975709004587477,-0.17845153808593747
219,11.263,-0.196533203125,-0.1993408203125,-0.9972381591796875,-0.9806008684803567,0.9985041337258547,-0.196533203125
220,11.313,-0.1904144287109375,-0.2103424072265625,-1.0489349365234375,-0.9804807076920687,0.9985919055900044,-0.1904144287109375
221,11.363,-0.141357421875,-0.2066650390625,-1.0318145751953125,-0.9805254241140456,0.99800576372727,-0.141357421875
222,11.413,-0.0712432861328125,-0.1770172119140625,-1.0020904541015625,-0.9847536552846143,0.9976294465250153,-0.0712432861328125
223,11.462,-0.1084747314453125,-0.21405029296875,-0.9858856201171875,-0.9772324337969798,0.9973816867481299,-0.1084747314453125
224,11.512,-0.0954437255859375,-0.2203216552734375,-0.899444580078125,-0.9712849570244769,0.9971019164609649,-0.0954437255859375
225,11.562,-0.0901031494140625,-0.21527099609375,-0.9995880126953125,-0.9775867900897016,0.9970962620061572,-0.0901031494140625
226,11.612,-0.0544586181640625,-0.2002105712890625,-0.9810333251953125,-0.9798041197146686,0.9967043763748473,-0.0544586181640625
227,11.662,-0.0391845703125,-0.207855224609375,-0.9981536865234375,-0.9789987186002936,0.9965172686334254,-0.0391845703125
228,11.712,-0.005035400390625,-0.1775970458984375,-1.0881500244140625,-0.9869415480299649,0.9962436324203919,-0.005035400390625
229,11.761,0.0138702392578125,-0.2243804931640625,-0.916229248046875,-0.97129784552943,0.995956920929321,0.0138702392578125
230,11.811,0.0296478271484375,-0.222900390625,-0.8875885009765625,-0.9698840017596233,0.9965394748160826,0.0296478271484375
231,11.861,0.0150604248046875,-0.232330322265625,-0.9619903564453125,-0.9720532180246372,0.9972454512955501,0.0150604248046875
232,11.911,0.045928955078125,-0.2477874755859375,-0.901031494140625,-0.9642043491316108,0.9970935519441099,0.04592895507812499
233,11.961,0.1127777099609375,-0.244415283203125,-0.973785400390625,-0.9699149968189457,0.9969678706233457,0.1127777099609375
234,12.011,0.1414642333984375,-0.2548980712890625,-0.9161224365234375,-0.9634040271205038,0.9969779585748332,0.1414642333984375
235,12.06,0.1409759521484375,-0.2303466796875,-0.986724853515625,-0.9738169889222597,0.9976187703326517,0.1409759521484375
236,12.11,0.0950775146484375,-0.2328338623046875,-0.95166015625,-0.9713505282316913,0.9977854245846167,0.0950775146484375
237,12.16,0.2762451171875,-0.2198333740234375,-0.8502655029296875,-0.9681642645113322,0.998876434330409,0.2762451171875
238,12.21,0.1563720703125,-0.29339599609375,-1.0494537353515625,-0.9630714158405781,0.997749118383378,0.1563720703125
