index,time,acc x,acc y,acc z,sin ori x,sin ori y,sin ori z
0,0,-0.16864013671875,-0.6141510009765625,-0.7925262451171875,-0.7904424996584418,0,-0.16586690419485395
1,0.049,-0.171630859375,-0.6301727294921875,-0.734466552734375,-0.7589348602532209,0.003727538074670512,-0.17163085937499997
2,0.099,-0.1714324951171875,-0.632080078125,-0.7141265869140625,-0.7488129925813649,0.004980849648062388,-0.1714324951171875
3,0.149,-0.168212890625,-0.617523193359375,-0.7412872314453125,-0.7683314579834948,0.0027236380467668534,-0.168212890625
4,0.199,-0.19610595703125,-0.6427001953125,-0.7685699462890625,-0.7671278343998882,0.0004652141425590646,-0.19610595703125
5,0.249,-0.189178466796875,-0.6405792236328125,-0.7575836181640625,-0.763611426285781,-0.0012671185060560747,-0.189178466796875
6,0.299,-0.2154388427734375,-0.6407012939453125,-0.8074493408203125,-0.7833510280704831,0.0003360508877863451,-0.21543884277343753
7,0.348,-0.3092193603515625,-0.7995758056640625,-0.5320587158203125,-0.5539850490338948,0.009815508368331012,-0.3092193603515625
8,0.398,-0.2020111083984375,-0.560028076171875,-0.7886810302734375,-0.815351485227217,0.004299566965408616,-0.2020111083984375
9,0.448,-0.263153076171875,-0.482513427734375,-1.1161346435546875,-0.8298410216566889,-0.00499345978516634,-0.25741942035360793
10,0.498,-0.271575927734375,-0.404876708984375,-0.9928436279296875,-0.9259668918538367,-0.037174100715642436,-0.271575927734375
11,0.548,-0.208282470703125,-0.415283203125,-1.025054931640625,-0.9268272674502113,-0.07020423308252352,-0.208282470703125
12,0.598,-0.197113037109375,-0.57000732421875,-0.9328460693359375,-0.8533083993602524,-0.08785526829126125,-0.197113037109375
13,0.647,-0.0331878662109375,-0.7431793212890625,-0.7535247802734375,-0.7119774085431082,-0.13365496191383414,-0.0331878662109375
14,0.697,-0.1179656982421875,-0.8117828369140625,-0.6910247802734375,-0.6481979249415137,-0.19414869567735654,-0.1179656982421875
15,0.747,-0.0464324951171875,-0.9029541015625,-0.5317535400390625,-0.5074483322414887,-0.26502887981864587,-0.0464324951171875
16,0.797,0.013641357421875,-0.9201507568359375,-0.362213134765625,-0.36628771431274443,-0.3162321300774838,0.013641357421875
17,0.847,-0.0079193115234375,-0.9212799072265625,-0.248016357421875,-0.2599533991739316,-0.3695444451508741,-0.0079193115234375
18,0.897,0.038665771484375,-0.9049835205078125,-0.20654296875,-0.22250699365181864,-0.4314564314816808,0.038665771484375
19,0.946,0.071441650390625,-0.926910400390625,-0.08392333984375,-0.09017209516413943,-0.493675356208591,0.071441650390625
20,0.996,0.119110107421875,-0.88214111328125,-0.0327606201171875,-0.03711203479632036,-0.5485789368557323,0.119110107421875
21,1.046,0.198089599609375,-0.89117431640625,0.124725341796875,0.1386052693484798,-0.5911853573776704,0.198089599609375
22,1.096,0.23016357421875,-0.8448486328125,0.0944976806640625,0.11115843284049998,-0.6405976311498865,0.23016357421875003
23,1.146,0.305572509765625,-0.79864501953125,0.1165618896484375,0.14441950590950076,-0.6848478548215562,0.305572509765625
24,1.196,0.3355255126953125,-0.75091552734375,0.193023681640625,0.24895770589151364,-0.7229557323006688,0.3355255126953125
25,1.246,0.277862548828125,-0.7992095947265625,0.221832275390625,0.2674531429613934,-0.7681048844705415,0.277862548828125
26,1.295,0.182891845703125,-0.8664093017578125,0.23223876953125,0.2589075577870931,-0.8272321905270632,0.182891845703125
27,1.345,0.253997802734375,-0.964202880859375,0.51708984375,0.47261379849981067,-0.8496127487301756,0.253997802734375
28,1.395,0.4106292724609375,-1.0377044677734375,0.659149169921875,0.4522272699913422,-0.8425068014570088,0.23972729062608517
29,1.445,0.4558563232421875,-1.0033111572265625,0.4888763427734375,0.45608232102260154,-0.8436618247210811,0.21214822664020877
30,1.495,0.5692291259765625,-0.858062744140625,0.6063385009765625,0.5770942250269571,-0.8494466299181889,0.5692291259765625
31,1.545,0.6978912353515625,-0.7140045166015625,0.2816619873046875,0.36696148620015445,-0.8546403702841876,0.6978912353515625
32,1.594,0.4723358154296875,-0.7932281494140625,0.3734893798828125,0.4259889598398399,-0.8653527329062924,0.4723358154296875
33,1.644,0.5379180908203125,-0.7193756103515625,0.4394989013671875,0.5213467721568216,-0.860904946354522,0.5379180908203125
34,1.694,0.5225982666015625,-0.7221221923828125,0.4626922607421875,0.5394953836336116,-0.8649731493250977,0.5225982666015625
35,1.744,0.678375244140625,-0.5246124267578125,0.59259033203125,0.7487470090759448,-0.8615080947935538,0.678375244140625
36,1.794,0.8220977783203125,-0.3182220458984375,0.4691619873046875,0.827588758162561,-0.8558113968108831,0.8220977783203125
37,1.844,0.7304534912109375,-0.317840576171875,0.47894287109375,0.833216460599868,-0.8522473261680774,0.7304534912109375
38,1.893,0.7616119384765625,-0.2110595703125,0.6305694580078125,0.9482901717515876,-0.8487297438627515,0.7616119384765625
39,1.943,0.792999267578125,-0.07891845703125,0.4930267333984375,0.987429950284656,-0.8346931424147922,0.792999267578125
40,1.993,0.9239654541015625,0.315948486328125,0.8229827880859375,0.9824674044866993,-0.796313931120216,0.8387461510539564
41,2.043,0.85858154296875,2.40142822265625,0.0907440185546875,0.9272777366088406,-0.8355800014558752,0.9756648977256794
42,2.138,-0.4012603759765625,-0.7988739013671875,2.497772216796875,0.879350662019701,-0.8022693794353136,0.9710474598153199
43,2.188,-0.7403411865234375,-1.0067901611328125,0.1618194580078125,0.87697550489335,-0.8364186870528091,0.9748722637246002
44,2.237,-0.254119873046875,-0.5391998291015625,1.131805419921875,0.869314546821588,-0.8258111136589283,0.9668441182892873
45,2.287,-0.622589111328125,-0.706146240234375,0.6193084716796875,0.6593667821856747,-0.8458174017543146,-0.622589111328125
46,2.337,-0.9593963623046875,-1.0211181640625,0.6263275146484375,0.7055397862094795,-0.8614557389792237,-0.647113233232094
47,2.387,-0.7248992919921875,-0.7350006103515625,0.911865234375,0.744854532262203,-0.8870583363921803,-0.6983586794207703
48,2.437,-0.6474609375,-0.621917724609375,0.6670074462890625,0.731395694478881,-0.9084924448102448,-0.6474609375
49,2.487,-0.2942047119140625,-0.530548095703125,0.6094970703125,0.7542680057498558,-0.9277697787244623,-0.2942047119140625
50,2.536,-0.0577850341796875,-0.4868621826171875,0.729217529296875,0.8316725980362067,-0.9320443531648055,-0.0577850341796875
51,2.586,0.117218017578125,-0.426055908203125,0.4550933837890625,0.730012564580359,-0.9275003159119716,0.117218017578125
52,2.636,0.3888702392578125,-0.3671722412109375,0.5052490234375,0.8089504927765159,-0.9340028318691126,0.3888702392578125
53,2.686,0.414794921875,-0.531646728515625,0.70562744140625,0.7986799470732939,-0.935291026841036,0.414794921875
54,2.736,0.7491302490234375,-0.2545166015625,0.6259613037109375,0.9263530985028009,-0.925130064045847,0.7491302490234375
55,2.786,0.523712158203125,-0.3895111083984375,0.592864990234375,0.835761041644286,-0.9236621141823523,0.523712158203125
56,2.835,0.57391357421875,-0.33331298828125,0.6732940673828125,0.8961952716796003,-0.9126888338324912,0.57391357421875
57,2.885,0.315460205078125,-0.6962738037109375,0.801666259765625,0.7549911800655277,-0.9064449352042706,0.315460205078125
58,2.935,-0.003448486328125,-1.14166259765625,0.5689849853515625,0.7324304236043006,-0.8927778027736338,0.3503198490559203
59,2.985,-0.24420166015625,-1.63031005859375,0.75640869140625,0.7339828268413784,-0.8834104761222233,0.32464667099851985
60,3.035,-0.061920166015625,-1.3553009033203125,0.88983154296875,0.73011681577901,-0.8618968140994091,0.2428023953452674
61,3.085,0.3971099853515625,-0.83001708984375,0.9315338134765625,0.7459786910058976,-0.8579390947421657,0.12532458641312438
62,3.134,0.979644775390625,-0.4681243896484375,0.81964111328125,0.747090989368274,-0.8361278113874002,0.010625848670038457
63,3.184,0.863372802734375,-0.468109130859375,0.444366455078125,0.6884747910549884,-0.8213782268265272,0.863372802734375
64,3.234,0.7923583984375,-0.703277587890625,0.5189971923828125,0.593786641328167,-0.7921551590272872,0.7923583984375
65,3.284,1.153717041015625,-0.168914794921875,0.621978759765625,0.699861981219956,-0.7666255460014836,0.7506465239298217
66,3.334,1.627899169921875,0.2769622802734375,0.905609130859375,0.7888868668134744,-0.730200221128837,0.7609828993623573
67,3.414,2.04541015625,1.587738037109375,0.587860107421875,0.7980426277208406,-0.6987190642183059,0.8133067764760329
68,3.553,-1.268585205078125,0.54376220703125,2.2787933349609375,0.850236947984603,-0.8663240411608507,0.7420247253818514
69,3.603,-0.2830352783203125,0.2562103271484375,0.176483154296875,0.5672675394520745,-0.8455641907906312,-0.2830352783203125
70,3.653,-0.5108642578125,-0.552886962890625,1.09674072265625,0.5731304527935518,-0.8561944430102276,-0.2646534560052589
71,3.703,-0.9743499755859375,-0.6787109375,1.420501708984375,0.545779148689782,-0.8885413679378005,-0.3118001656178412
72,3.753,-0.6492767333984375,-0.275360107421875,0.8947296142578125,0.955761385784931,-0.917662140319255,-0.6492767333984375
73,3.802,-0.6287384033203125,-0.2835540771484375,0.8816680908203125,0.951977978598515,-0.9464486946095674,-0.6287384033203125
74,3.852,0.4506378173828125,0.076263427734375,0.961761474609375,0.9968708548517518,-0.9530697106680867,0.4506378173828125
75,3.902,0.441802978515625,-0.06201171875,0.6809844970703125,0.9958794770273925,-0.9610807991441459,0.441802978515625
76,3.952,0.8016815185546875,0.034332275390625,0.69781494140625,0.9987918883245708,-0.9646778163105006,0.8016815185546875
77,4.002,0.942169189453125,-0.076629638671875,0.742767333984375,0.9999398424562221,-0.969404031876627,0.7907854602452474
78,4.052,0.853759765625,0.063201904296875,0.5641326904296875,0.9937826856578656,-0.9777552904445677,0.8537597656249999
79,4.101,0.932373046875,-0.03253173828125,0.671600341796875,0.9988288856771842,-0.9795968648080429,0.932373046875
80,4.151,0.5619659423828125,-0.1467742919921875,0.5460205078125,0.9657183471504074,-0.9843618843866523,0.5619659423828125
81,4.201,0.7050018310546875,-0.77740478515625,0.9273834228515625,0.9352751184402268,-0.9834862951542348,0.5990066499548655
82,4.251,0.4010162353515625,-1.0153656005859375,0.60968017578125,0.8983044588874305,-0.9877487233256285,0.6173085921539451
83,4.301,0.63848876953125,-0.8121490478515625,0.731292724609375,0.8754898752344236,-0.9915021027041633,0.6217373091973559
84,4.351,0.47259521484375,-0.727508544921875,0.82373046875,0.7495274031265609,-0.9966264038673381,0.47259521484375
85,4.4,0.4803314208984375,-0.664031982421875,0.614776611328125,0.6793676813609382,-0.9983587072130371,0.48033142089843756
86,4.45,0.384307861328125,-0.7945098876953125,0.54632568359375,0.5665993408359857,-0.9986825942795032,0.384307861328125
87,4.5,0.50048828125,-0.6682891845703125,0.383880615234375,0.49809500486979147,-0.9957262345204851,0.50048828125
88,4.55,0.4038543701171875,-0.724609375,0.33984375,0.4246214362959747,-0.9936331389602087,0.4038543701171875
89,4.6,0.5266876220703125,-0.69598388671875,0.5671234130859375,0.6316899750233919,-0.994981473471116,0.5266876220703125
90,4.65,0.241119384765625,-0.829864501953125,0.2999267578125,0.33989856049592765,-0.9902623919966872,0.241119384765625
91,4.699,0.5638580322265625,-0.6458282470703125,-0.0843048095703125,-0.12943934000677879,-0.9730601791770789,0.5638580322265625
92,4.749,0.497344970703125,-0.84710693359375,0.3227386474609375,0.3560254260202487,-0.9735190630147882,0.497344970703125
93,4.799,0.3218994140625,-0.86785888671875,0.380126953125,0.4012074297685681,-0.9642405588040645,0.3218994140625
94,4.849,0.191009521484375,-1.012664794921875,0.580230712890625,0.4971495190782522,-0.9573977188437881,0.191009521484375
95,4.899,0.24267578125,-0.9096832275390625,0.72064208984375,0.6209551523548555,-0.9626793077784496,0.24267578125
96,4.949,0.0817718505859375,-0.8891754150390625,0.4741363525390625,0.4705182855830935,-0.9812780949989581,0.0817718505859375
97,4.999,0.4200286865234375,-1.029937744140625,0.6322021484375,0.4553853666986105,-0.9869164329368254,0.042052666038117976
98,5.048,0.317901611328125,-0.853759765625,-0.065948486328125,-0.07701535703101856,-0.9826856954136549,0.317901611328125
99,5.098,0.480255126953125,-0.6900482177734375,0.1144561767578125,0.16363129950664188,-0.980092999104215,0.48025512695312506
100,5.148,0.4169158935546875,-0.899505615234375,0.4386749267578125,0.43833621426069586,-0.9855170773880938,0.4169158935546875
101,5.198,0.1565399169921875,-1.2771453857421875,0.2153167724609375,0.45549837060506637,-0.9866162916448408,0.43259538434783207
102,5.248,0.50946044921875,-0.7619781494140625,0.174468994140625,0.22319262334672185,-0.9821207660189729,0.50946044921875
103,5.298,0.3838653564453125,-0.8580169677734375,0.138336181640625,0.15917227088927705,-0.9765091558138982,0.3838653564453125
104,5.347,0.3798828125,-0.9150390625,0.201416015625,0.21497113965939588,-0.9801992411027415,0.3798828125
105,5.397,0.360382080078125,-1.075103759765625,0.16668701171875,0.15321217993224964,-0.9763555278281149,0.360382080078125
106,5.447,0.2960052490234375,-1.0338592529296875,0.28167724609375,0.2628703879487602,-0.9810840454986699,0.2960052490234375
107,5.497,0.512939453125,-0.8739471435546875,0.1567230224609375,0.17651208410820937,-0.9808856374042239,0.512939453125
108,5.547,0.3615875244140625,-0.7285614013671875,-0.083770751953125,-0.1142284386641569,-0.9767369956112529,0.3615875244140625
109,5.597,0.4405670166015625,-0.82977294921875,0.0980377197265625,0.11733393568266132,-0.9762605443327843,0.4405670166015625
110,5.646,0.512725830078125,-0.7418212890625,-0.1849212646484375,-0.24187811002121434,-0.9740137364081053,0.512725830078125
111,5.696,0.428680419921875,-0.8282623291015625,0.150604248046875,0.17889819850223806,-0.9768650052697508,0.428680419921875
112,5.746,0.211029052734375,-1.066314697265625,0.1466827392578125,0.13627712388285845,-0.9733391617228638,0.211029052734375
113,5.796,0.0153350830078125,-1.3968658447265625,-0.2306976318359375,0.18840596689760394,-0.9596722404863031,0.22919457881147784
114,5.846,0.5372772216796875,-0.8140411376953125,0.2906494140625,0.3362547604930943,-0.9593074133165305,0.5372772216796875
115,5.896,0.6853179931640625,-0.0352325439453125,0.6836700439453125,0.9986747405506622,-0.9745656240851285,0.6853179931640625
116,5.946,1.0330657958984375,0.3005523681640625,0.88800048828125,0.9991358511973114,-0.9724530047530714,0.7300106044357539
117,5.995,-0.0269775390625,-1.015777587890625,0.2398834228515625,0.22983538047363478,-0.977348942860211,-0.0269775390625
118,6.065,-0.534027099609375,-2.0919952392578125,0.04840087890625,0.2668857977762554,-0.9863115089272042,0.03620663191466644
119,6.115,0.5756072998046875,-0.8094024658203125,0.5020294189453125,0.527091256017304,-0.9808545265416752,0.5756072998046875
120,6.165,0.846771240234375,-0.07177734375,0.5490570068359375,0.9915630303888564,-0.9797609457741785,0.846771240234375
121,6.215,0.731781005859375,-0.0777435302734375,0.71026611328125,0.9940628886303184,-0.9752524773590971,0.731781005859375
122,6.264,-0.1078338623046875,-1.464599609375,0.3866424560546875,0.9932955732394305,-0.9691601420923112,0.7649857565857345
123,6.329,-0.28155517578125,-2.2562713623046875,0.8690948486328125,0.9959660210092687,-0.9474705406912426,0.6555590614778034
124,6.379,1.2862548828125,0.18475341796875,0.48675537109375,0.9990782569723594,-0.91297173741145,0.4852033720469956
125,6.628,-0.88958740234375,-0.4847412109375,3.8671112060546875,0.9921498442462399,-0.9835036729866735,0.34676743729999754
126,6.678,0.3852691650390625,0.8089752197265625,-0.838104248046875,0.9966655763995299,-0.9922492114279641,0.35614424523266547
127,6.728,-0.971923828125,-0.8950653076171875,1.72613525390625,0.9987261367465051,-0.9979651579609997,0.3124516379648724
128,6.778,-1.6358184814453125,-0.4936065673828125,0.914764404296875,0.9916621798453917,-0.9997097606592044,0.1843992329780246
129,6.828,-0.6446685791015625,-0.273651123046875,0.5018463134765625,0.8779567761557319,-0.9961790639278914,-0.6446685791015625
130,6.878,0.3384857177734375,-0.07696533203125,1.13128662109375,0.9976937277669155,-0.9957014006682154,0.33848571777343756
131,6.927,0.8043060302734375,0.05413818359375,0.789581298828125,0.9976576291663833,-0.9958963153683672,0.8043060302734375
132,6.977,1.291259765625,0.1033172607421875,0.7829437255859375,0.9998134369519975,-0.9923634309521339,0.7859607150036282
133,7.027,1.1414794921875,0.12860107421875,0.743377685546875,0.9985206803825158,-0.9866309795585845,0.7826205353137318
134,7.077,1.0030059814453125,-0.196502685546875,0.7926483154296875,0.9909382915778362,-0.9844313699462462,0.8094632528663116
135,7.127,0.0915069580078125,-1.0345001220703125,0.3434906005859375,0.315118873659068,-0.9719775752969574,0.0915069580078125
136,7.177,0.3462982177734375,-0.9647216796875,0.89788818359375,0.2737406985726389,-0.9681272640652425,0.05706617880062059
137,7.226,0.8311309814453125,-0.2592315673828125,0.411041259765625,0.8458356718395845,-0.9630442593518891,0.8311309814453125
138,7.276,0.9952850341796875,0.241790771484375,0.433319091796875,0.8732506509994904,-0.9620509699935558,0.9952850341796875
139,7.326,0.7011871337890625,-0.1567535400390625,0.4168701171875,0.9360134099397748,-0.9663642908006971,0.7011871337890625
140,7.376,-0.3477020263671875,-1.6261444091796875,0.1800537109375,0.9374913493682789,-0.9709284289677426,0.7789421111927942
141,7.441,-0.274749755859375,-2.186187744140625,0.891021728515625,0.9434660599187771,-0.9826375438490087,0.7558680147118374
142,7.491,0.7005157470703125,-0.8232879638671875,0.7320098876953125,0.9276633325043007,-0.9948281638848347,0.6744001501470057
143,7.54,1.3023834228515625,0.121551513671875,0.6721343994140625,0.9460048503087846,-0.9983149640257498,0.5873011825772946
144,7.59,1.762603759765625,0.52911376953125,0.5286712646484375,0.9729078104201927,-0.9999964063735712,0.5686068054043288
145,7.64,1.9050445556640625,0.6574554443359375,1.01153564453125,0.9962601654679459,-0.9969832089236539,0.6369641245353893
146,7.69,1.0004119873046875,1.35211181640625,0.9538421630859375,0.9985355914038604,-0.9966179734907491,0.7786297322427725
147,7.81,1.27178955078125,2.3582611083984375,1.361480712890625,0.9999950335950836,-0.99698864081121,0.6171988387353295
148,7.859,-1.2229461669921875,-0.9285125732421875,0.227264404296875,0.9889911512140496,-0.999825187202526,0.6727376273775292
149,7.909,0.1938018798828125,-0.0658111572265625,1.146026611328125,0.9983552225282714,-0.9983485311514979,0.1938018798828125
150,7.959,-0.655181884765625,-0.8239288330078125,0.73748779296875,0.9937412211688764,-0.9994143980709536,0.22341403250893246
151,8.009,-1.001678466796875,-0.9664154052734375,1.1920623779296875,0.9978340731163662,-0.9998834633237186,0.21183295311219005
152,8.059,-0.7700958251953125,-0.716888427734375,0.6508026123046875,0.9906181996032023,-0.9986687779005957,0.137237969541493
153,8.109,-0.434478759765625,-0.6486053466796875,0.8154449462890625,0.7826216469812126,-0.9921543521484527,-0.434478759765625
154,8.158,-0.017852783203125,-0.4195556640625,0.6806640625,0.8512754374645234,-0.984279610671521,-0.017852783203125
155,8.208,0.4885406494140625,-0.08837890625,0.610076904296875,0.9896693556289491,-0.9789789369259595,0.48854064941406244
156,8.258,0.61761474609375,0.0776214599609375,0.5653076171875,0.9907044439159614,-0.9715974752203886,0.61761474609375
157,8.308,1.0846099853515625,0.19708251953125,0.604766845703125,0.9953806201865562,-0.9682192729141725,0.5816755472916758
158,8.358,0.9575042724609375,-0.08428955078125,0.62847900390625,0.9911258890684365,-0.9549323971277661,0.9575042724609375
159,8.408,0.5582122802734375,-0.601043701171875,0.549407958984375,0.67469045994114,-0.950750222551677,0.5582122802734375
160,8.457,0.3611297607421875,-0.9313201904296875,0.1722259521484375,0.18184348880789042,-0.9389159473293781,0.3611297607421875
161,10.202,0.284393310546875,-1.1363067626953125,0.3812103271484375,0.14385978070344682,-0.9244654449253709,0.4411111542948525
162,10.252,0.2818603515625,-1.201629638671875,0.3401947021484375,0.08297173954455901,-0.9283408521721435,0.4913967140518017
163,10.302,0.187774658203125,-1.196807861328125,0.370086669921875,0.03973247107521905,-0.9263861089661244,0.5040033802146564
164,10.351,0.2945098876953125,-0.9411163330078125,0.4470977783203125,0.42910968775705105,-0.9269546098158683,0.2945098876953125
165,10.401,0.42437744140625,-0.6817169189453125,0.482025146484375,0.5773330938979727,-0.9341935303551864,0.42437744140625
166,10.451,0.5157470703125,-0.47900390625,0.3537139892578125,0.5940300167592432,-0.938617625980058,0.5157470703125
167,10.501,0.2534332275390625,-0.7647705078125,0.266143798828125,0.328671179414646,-0.9431075599885443,0.2534332275390625
168,10.551,-0.774749755859375,-1.6957244873046875,0.2587127685546875,0.35157807014991316,-0.9447892801985899,0.34032509696877605
169,10.601,-0.480072021484375,-1.5349273681640625,0.61151123046875,0.4228481404764034,-0.9409236125609705,0.34914188699605003
170,10.65,0.1393280029296875,-0.893707275390625,0.50390625,0.49114644663367724,-0.953019970696777,0.1393280029296875
171,10.7,0.4542388916015625,-0.482208251953125,0.3258819580078125,0.5599347607188901,-0.9607360313168282,0.4542388916015625
172,10.75,0.56231689453125,-0.283111572265625,0.537200927734375,0.8846640831836448,-0.9520231430276174,0.56231689453125
173,10.8,0.4692230224609375,-0.3933258056640625,0.3973388671875,0.7106865860599048,-0.948311516745086,0.4692230224609375
174,10.85,0.0744171142578125,-0.9377288818359375,0.0683135986328125,0.07265750658930731,-0.9464953086864452,0.0744171142578125
175,10.9,-0.4160003662109375,-1.96307373046875,0.1414947509765625,0.07605562654924347,-0.9526870409072823,0.12178435193097455
176,10.95,-0.6324005126953125,-2.055206298828125,0.3350830078125,0.10862931833873009,-0.9649064739466138,0.11715901617970488
177,10.999,0.2383575439453125,-1.1385955810546875,0.6688995361328125,0.16944630565222804,-0.9853553393482868,-0.012399484175085261
178,11.049,0.87017822265625,-0.20013427734375,0.84979248046875,0.2371095861976594,-0.996023424984054,-0.16198239005620454
179,11.099,1.5717926025390625,0.5411834716796875,0.8447723388671875,0.33915229199930697,-0.9966964980222668,-0.3108715058193904
180,11.149,1.9935150146484375,0.8053741455078125,0.523162841796875,0.38883250505594597,-0.9991712893719432,-0.3889853647800206
181,11.199,2.615478515625,1.3717041015625,1.5794830322265625,0.511031414816462,-0.9997786974679553,-0.3482011244787431
182,11.249,-0.9117889404296875,2.3347320556640625,0.2831878662109375,0.5069550604225016,-0.998944809056443,-0.11113341967629278
183,11.298,-6.9709930419921875,-2.438995361328125,-0.653076171875,0.6291438800270478,-0.9987694091108221,0.31266078440017425
184,11.348,-0.56414794921875,-0.979583740234375,4.1687164306640625,0.7538496191303498,-0.9850634189974843,0.4140579999930021
185,11.398,0.3087310791015625,0.511322021484375,-0.779266357421875,-0.8360831102395598,-0.9990814959207825,0.3087310791015625
186,11.448,-0.7745513916015625,-0.9101715087890625,1.108428955078125,-0.8797669843413426,-0.9999968678109404,0.32763737860902725
187,11.498,-1.1302337646484375,-0.6416473388671875,1.0101165771484375,-0.8880462709267135,-0.9994701716564122,0.2810059039145349
188,11.548,-0.852508544921875,-0.4871368408203125,0.7140655517578125,-0.8928580169458015,-0.9925832229245793,0.17721651190320073
189,11.597,-0.3494720458984375,-0.2520904541015625,0.7192535400390625,0.9437143766182198,-0.9866716554447639,-0.3494720458984375
190,11.647,0.106658935546875,-0.2455291748046875,0.7709808349609375,0.9528482285784973,-0.9765479431837311,0.106658935546875
191,11.697,0.501861572265625,-0.195892333984375,1.1038818359375,0.9356999503551044,-0.9689854055416569,0.011885411070066697
192,11.747,0.677032470703125,0.0909881591796875,0.6610107421875,0.9906587697254406,-0.9655641997505982,0.677032470703125
193,11.797,0.9210205078125,0.1626434326171875,0.747314453125,0.9771264591664118,-0.9544094086777478,0.9210205078125
194,11.847,1.355560302734375,0.1333465576171875,0.691070556640625,0.9955768526066487,-0.9605875559706264,0.9239585814947289
195,11.897,0.9766693115234375,-0.1784515380859375,0.191650390625,0.7318589007073573,-0.9284425511252251,0.9766693115234375
196,11.946,0.44610595703125,-1.08135986328125,-0.1923675537109375,-0.17514436157246877,-0.9064576566976829,0.44610595703125
197,11.996,-0.141693115234375,-2.4637451171875,0.5207672119140625,-0.15151784363454926,-0.9160206582016723,0.5617781888934954
198,12.046,-0.273162841796875,-2.5372161865234375,0.88623046875,-0.12958414190713563,-0.9294892856847116,0.556216932422452
199,12.096,0.405487060546875,-0.9214630126953125,0.7834625244140625,-0.11780365143859152,-0.9505240950582378,0.4141500247346981
200,12.146,1.5218963623046875,0.7451629638671875,0.4134368896484375,-0.0973720964224852,-0.9609238077124176,0.18574331496377955
201,12.196,2.603546142578125,1.5624542236328125,0.30926513671875,0.020469244885558326,-0.9745208870739761,0.04139699985106089
202,12.245,2.7092437744140625,1.5474395751953125,0.8657073974609375,0.2101019186268543,-0.9943838176883711,0.08964308416374683
203,12.295,-0.1029510498046875,2.2662200927734375,0.1914825439453125,0.3139984645816491,-0.9992568484101566,0.3132938123902806
204,12.345,-7.0717315673828125,-2.7677154541015625,0.8727264404296875,0.4501806815173987,-0.9999973635286618,0.6722156239375418
205,12.395,-0.88262939453125,-0.8036651611328125,2.4101104736328125,0.3862092327703733,-0.9838395216221376,0.7854469062258396
206,12.445,0.476654052734375,0.90252685546875,0.0161895751953125,0.017935168394519977,-0.9982145126696192,0.476654052734375
207,12.534,2.12310791015625,0.7918701171875,0.90948486328125,-0.14746486183347102,-0.9952983213974247,0.45975317823651835
208,12.584,2.466583251953125,1.39300537109375,1.3201446533203125,-0.18317198764764434,-0.9931480952804892,0.5491348191606678
209,12.634,-0.428009033203125,2.7445068359375,-1.3144073486328125,-0.30098995896717873,-0.9984194012216053,0.8508036313273768
210,12.684,-5.535247802734375,-1.6136627197265625,3.1654205322265625,-0.3864881007354316,-0.9904315904596482,0.9183131538275731
211,12.734,-1.0389251708984375,-0.9348297119140625,2.7257080078125,-0.3427957742870344,-0.9963926853427008,0.8729532041381459
212,12.784,-0.0263519287109375,0.58575439453125,-0.3531951904296875,-0.5163677599266462,-0.9986957413635884,-0.0263519287109375
213,12.833,-1.6486968994140625,-1.174957275390625,1.1644287109375,-0.6529654030317465,-0.997196669243096,-0.116149176873871
214,12.883,-1.1479949951171875,-0.237091064453125,1.4600982666015625,-0.5187145178847214,-0.9923125588883732,-0.25451967258720065
215,12.933,-0.1459503173828125,-0.1376190185546875,0.316375732421875,0.917001839094975,-0.981102286407775,-0.1459503173828125
216,12.983,0.55462646484375,-0.1121826171875,0.84857177734375,0.9913742601294745,-0.9770950365622845,0.55462646484375
217,13.033,1.01141357421875,0.20703125,0.3245849609375,0.8430996190740686,-0.9706693604093042,NaN
218,13.083,1.4659271240234375,0.3196868896484375,0.4718017578125,0.8552625505841076,-0.9715130812381831,NaN
219,13.132,1.15606689453125,0.2441253662109375,0.745330810546875,0.8973283557298635,-0.9716062053246124,NaN
220,13.182,0.8775482177734375,-0.0370025634765625,0.4825286865234375,0.9970726336102749,-0.9690725628409366,0.8775482177734375
221,13.232,-0.0320281982421875,-1.2085723876953125,0.5089111328125,0.9965922288409602,-0.9698034557184421,0.9392716624576063
222,13.282,-0.6068572998046875,-2.2352752685546875,0.8231048583984375,0.9994915717564248,-0.9736402985949607,0.9483114237460375
223,13.332,-0.013214111328125,-1.3377838134765625,1.1907958984375,0.9961139139881328,-0.9775420273428347,0.9202042455947347
224,13.382,0.3686370849609375,-0.409942626953125,0.4428558349609375,0.733850771572705,-0.9796781813627298,0.3686370849609375
225,13.431,0.6415557861328125,-0.132537841796875,0.5890045166015625,0.9756055611103255,-0.981378011840159,0.6415557861328125
226,13.481,0.3812408447265625,-0.374664306640625,0.6137237548828125,0.8535225155217713,-0.9866809764374428,0.38124084472656244
227,13.531,-0.9864959716796875,-2.1411590576171875,0.62994384765625,0.9023924670297255,-0.9871339659476851,0.3713083078220702
228,13.581,-0.4636383056640625,-1.464569091796875,1.32635498046875,0.8768468015764397,-0.9912578598161425,0.22300215660792067
229,13.631,0.426483154296875,0.017852783203125,0.405548095703125,0.9990324654433866,-0.9951679981598258,0.426483154296875
230,13.681,1.0467071533203125,0.41253662109375,1.041473388671875,0.9975659003720253,-0.9998205567018171,0.3276705018791986
231,13.73,2.327972412109375,0.6523590087890625,0.689178466796875,0.9713344874357995,-0.9998386189824958,0.34937646040726816
232,13.78,3.867950439453125,1.6529541015625,1.9364776611328125,0.9489244890226969,-0.998103387610394,0.43672474116311216
233,13.83,1.10406494140625,3.196929931640625,-0.4737091064453125,0.9124737820053609,-0.9997514302551982,0.7635411372674037
234,13.88,-8.141845703125,-0.5875396728515625,0.477783203125,0.9668860632283705,-0.9697385469815709,0.9541302030191792
235,13.93,-1.7364959716796875,-1.910125732421875,3.2229156494140625,0.848875386988753,-0.9640897172280973,0.9475507295341493
236,13.98,-3.9911041259765625,0.1657562255859375,0.1869354248046875,0.9420278779048779,-0.9869488105031576,0.8058187023579629
237,14.03,-1.115478515625,0.81494140625,0.9595184326171875,0.9249300745487858,-0.9994096102619474,0.6424950889379735
238,14.079,1.1499176025390625,0.6752471923828125,0.028228759765625,0.9558203748594234,-0.9966175571720006,0.5097749165102023
239,14.129,1.6113739013671875,0.6381988525390625,0.66436767578125,0.9596746922246843,-0.989384271070465,0.4733709869026054
240,14.179,2.0220184326171875,0.6542205810546875,1.3246917724609375,0.9816290706730275,-0.9896973775469121,0.46519687038815993
241,14.229,1.1650238037109375,0.3546600341796875,0.4047088623046875,0.9724854715027875,-0.9859861945652751,0.5518869039760345
242,14.279,-0.177703857421875,-1.3324127197265625,1.1557464599609375,0.9489063453561127,-0.9742907628227535,0.6171903067478165
243,14.329,-0.098388671875,-1.1588134765625,1.0374603271484375,0.9481356042233692,-0.9585841562736277,0.6070338502841326
244,14.378,0.5972137451171875,-0.21240234375,0.2877197265625,0.8045235968652537,-0.9578971881217112,0.5972137451171875
245,14.428,0.9719390869140625,0.4321746826171875,0.1326141357421875,0.2933528523384025,-0.9609431425045174,0.9719390869140625
246,14.478,0.793212890625,0.2923431396484375,0.4107513427734375,0.8147179760410967,-0.9634173167128579,0.793212890625
247,14.528,0.3833160400390625,-0.233612060546875,0.8137664794921875,0.9611776922406957,-0.9707659332526422,0.3833160400390625
248,14.578,-0.55560302734375,-2.4749298095703125,0.6732635498046875,0.9471795863410288,-0.9750348068329648,0.4809812502366449
249,14.628,-0.5296478271484375,-3.0829010009765625,1.7649993896484375,0.9334804706563192,-0.9803445325214613,0.3498771587058722
250,14.677,1.0844573974609375,-0.008819580078125,0.67755126953125,0.9050074186548982,-0.9792380336185721,0.1059762825576882
251,14.727,2.3832244873046875,1.4247894287109375,-0.0725860595703125,0.9624384600707494,-0.984334455175912,0.041203716404264186
252,14.777,2.8871307373046875,1.0601043701171875,0.765838623046875,0.9957124748600198,-0.9961963421563859,0.09192389444688517
253,14.827,2.4357757568359375,2.33026123046875,-0.08990478515625,0.998865150470355,-0.9998190903691951,0.367792429746486
254,14.877,-5.0809326171875,2.1771087646484375,0.19281005859375,0.9930336675074817,-0.9829747276829358,0.71742373093231
255,14.927,-5.353485107421875,-3.2928314208984375,-1.4736175537109375,0.9803784702808112,-0.8964550541251307,0.8207312907151557
256,14.977,-2.4857940673828125,-1.0446319580078125,2.105621337890625,0.9960534020425962,-0.9801430490710273,0.7013949958914067
257,15.026,-2.9031829833984375,-0.146331787109375,0.2011566162109375,0.983116305367478,-0.9999487542907233,0.5012015082366649
258,15.076,-0.4581756591796875,0.411712646484375,0.57080078125,0.8110381077221631,-0.9881730598183819,-0.4581756591796875
259,15.126,1.3449859619140625,0.4212646484375,0.3435821533203125,0.8213026832144679,-0.9705963693306088,-0.5649756417876617
260,15.176,1.915374755859375,0.57720947265625,0.736175537109375,0.875626993095685,-0.9634271665677747,-0.6475598204825582
261,15.226,2.4203033447265625,1.5256195068359375,0.4976959228515625,0.9365118169422108,-0.9687342185127106,-0.6469295921925603
262,15.276,0.6010284423828125,0.052276611328125,0.813751220703125,0.9979428789450332,-0.9321038864202879,0.6010284423828125
263,15.325,0.07470703125,-0.7526092529296875,0.8521728515625,0.749535804846667,-0.9128262224039112,0.07470703125
264,15.375,0.2945404052734375,-0.902557373046875,0.59600830078125,0.5510485600251784,-0.9040367010541613,0.2945404052734375
265,15.425,0.6106719970703125,-0.5785675048828125,0.4311676025390625,0.5975509093532099,-0.8961286726712603,0.6106719970703125
266,15.475,0.672027587890625,-0.7457122802734375,0.2281951904296875,0.29261569337469534,-0.9090244663031487,0.672027587890625
267,15.525,0.126220703125,-1.6345977783203125,0.4298553466796875,0.31879071135558573,-0.914777659332359,0.694747290262019
268,15.575,0.714080810546875,-0.8311920166015625,0.896759033203125,0.1954506517835385,-0.9231855296769076,0.6409438889567156
269,15.624,1.1646728515625,0.360076904296875,0.05780029296875,0.14077321533689394,-0.934434846760798,0.6367419205911045
270,15.674,0.970306396484375,0.2978973388671875,0.3929595947265625,0.7968962249692666,-0.9481408607248486,0.970306396484375
271,15.724,-0.3231658935546875,-2.110015869140625,0.3166351318359375,0.7508062586360612,-0.9702300224688812,0.9930661589913855
272,15.774,-1.000274658203125,-3.7731475830078125,1.4751434326171875,0.6970922337321306,-0.9904833792339292,0.9622059574732494
273,15.824,0.7779083251953125,0.1593170166015625,0.785552978515625,0.9800477365640998,-0.9945482351800479,0.7779083251953125
274,15.874,2.961944580078125,2.3988037109375,0.1451263427734375,0.9251781198700474,-0.9999965972651522,0.7400865782027686
275,15.924,3.0278778076171875,2.5871124267578125,1.5075225830078125,0.893356195941865,-0.9975495657313114,0.8704737526370946
276,15.973,-0.7840728759765625,2.815521240234375,-0.917510986328125,0.7466500466895225,-0.9984951391543421,0.9992882633767118
277,16.023,-7.3336944580078125,-1.490875244140625,0.8504791259765625,0.7920281002188558,-0.9516162633841427,0.9560619028192353
278,16.073,-1.46234130859375,-1.5233612060546875,4.2258758544921875,0.6021228071900249,-0.9670514461523484,0.9713976650483974
279,16.123,-1.7591552734375,0.6009063720703125,0.00897216796875,0.7763980503093683,-0.9717915487097567,0.9948039852760183
280,16.173,-2.4528961181640625,-0.152801513671875,0.9673004150390625,0.6811102324108467,-0.9990269140499646,0.994853076743681
281,16.223,-0.4962921142578125,0.1147003173828125,0.6363677978515625,0.9841417426516104,-0.9999552284767903,-0.49629211425781256
282,16.272,1.5393218994140625,0.37506103515625,0.3060455322265625,0.9946557973612326,-0.9999525296471028,-0.5748308571086707
283,16.322,1.4214019775390625,-0.0130767822265625,1.008270263671875,0.9999976265944145,-0.9998985885633919,-0.6228224188877185
284,16.372,2.6198883056640625,1.58447265625,1.081512451171875,0.9584869282850429,-0.9998067999028135,-0.6017939814216433
285,16.422,0.2845306396484375,-0.576568603515625,0.5487213134765625,0.6893971107789486,-0.9847792792615503,0.2845306396484375
286,16.472,0.1331787109375,-1.2422027587890625,1.2681732177734375,0.6074525656237183,-0.9723039085207325,0.39606390353689824
287,16.522,0.129913330078125,-0.8293304443359375,0.4343414306640625,0.4639485263888171,-0.9824976030780243,0.129913330078125
288,16.571,0.1978607177734375,-0.704376220703125,0.1330413818359375,0.18559672654015105,-0.9971445212182634,0.1978607177734375
289,16.621,0.2469482421875,-0.4862213134765625,-0.3863677978515625,-0.6221298430264547,-0.9997071531232844,0.2469482421875
290,16.671,0.1035003662109375,-0.407196044921875,-0.971893310546875,-0.9223202747384819,-0.9850514756230276,0.1035003662109375
291,16.721,-0.053741455078125,-0.4678802490234375,-0.949859619140625,-0.8970744544089346,-0.9534018444591973,-0.053741455078125
292,16.771,0.07958984375,-0.4235687255859375,-0.9354248046875,-0.9109614497194851,-0.9460676785358693,0.07958984375
293,16.821,-0.1246185302734375,-0.4336700439453125,-0.972442626953125,-0.9132972757364144,-0.9548615059812553,-0.1246185302734375
294,16.871,-0.4039459228515625,-0.47845458984375,-1.3679656982421875,-0.9330131244956882,-0.959347158310564,-0.10200714743894533
295,16.92,-0.2499237060546875,-0.4787750244140625,-1.3148651123046875,-0.9283992364892069,-0.9562961561350428,-0.09736870904597268
296,16.97,-0.2742919921875,-0.6209716796875,-0.8717498779296875,-0.8144870310040744,-0.9592788643190231,-0.2742919921875
297,17.02,-0.0673828125,-0.489044189453125,-0.814971923828125,-0.8574645931484454,-0.9693525693769592,-0.0673828125
298,17.07,-0.04815673828125,-0.4634246826171875,-0.725341796875,-0.8426900041662677,-0.9769956540779483,-0.04815673828125
299,17.12,-0.125,-0.5330810546875,-0.7071533203125,-0.7985254269681891,-0.9808979956836227,-0.125
300,17.17,-0.1773529052734375,-0.4713287353515625,-0.8724517822265625,-0.8798190474676366,-0.9793871484920997,-0.1773529052734375
301,17.219,-0.253631591796875,-0.537933349609375,-0.87872314453125,-0.8528774145253488,-0.9791717584635357,-0.253631591796875
302,17.269,-0.246490478515625,-0.5336456298828125,-0.84857177734375,-0.8465207215333393,-0.9727401294372463,-0.246490478515625
303,17.319,-0.2173614501953125,-0.5173797607421875,-0.8568878173828125,-0.8560584637391382,-0.9623948197176888,-0.2173614501953125
304,17.369,-0.1626129150390625,-0.505828857421875,-0.8507232666015625,-0.8595388166364832,-0.9553600828732108,-0.1626129150390625
305,17.419,-0.1060028076171875,-0.47515869140625,-0.8578948974609375,-0.8747840512572826,-0.9562118489961432,-0.1060028076171875
306,17.469,-0.03076171875,-0.3814849853515625,-0.9935760498046875,-0.9335531146837935,-0.958555865309241,-0.03076171875
307,17.518,-0.0151519775390625,-0.3683013916015625,-1.120452880859375,-0.9499933752849915,-0.95726129839329,-0.0151519775390625
308,17.568,-0.2245330810546875,-0.5723876953125,-0.8023223876953125,-0.8140691315969782,-0.9542886222122406,-0.2245330810546875
309,17.618,0.0233917236328125,-0.518463134765625,-0.9149627685546875,-0.8700286167810458,-0.9468953825244608,0.0233917236328125
310,17.668,-0.0510711669921875,-0.4793243408203125,-0.7779693603515625,-0.8513778304641227,-0.9449320062591775,-0.0510711669921875
311,17.718,0.009918212890625,-0.3108062744140625,-0.937744140625,-0.9492209690035367,-0.9361972198089398,0.009918212890625
312,17.768,-0.1345062255859375,-0.5869140625,-0.7988433837890625,-0.8058776158742504,-0.9220750379668224,-0.1345062255859375
313,17.818,-0.055816650390625,-0.4304351806640625,-0.89337158203125,-0.9008860286275511,-0.920405330399478,-0.055816650390625
314,17.867,-0.102691650390625,-0.6424102783203125,-0.7052154541015625,-0.7392586237435399,-0.9169948984871903,-0.102691650390625
315,17.917,-0.0728302001953125,-0.686553955078125,-0.695220947265625,-0.7115280142711211,-0.9129177251195764,-0.0728302001953125
316,17.967,-0.113189697265625,-0.663543701171875,-0.7858734130859375,-0.7640695668057109,-0.9099881629336037,-0.113189697265625
317,18.017,-0.070587158203125,-0.5731964111328125,-0.88946533203125,-0.8405773092461374,-0.905324639199116,-0.070587158203125
318,18.067,-0.0525665283203125,-0.5667266845703125,-0.8394927978515625,-0.8288170620151734,-0.9031287496453445,-0.0525665283203125
319,18.117,-0.0403594970703125,-0.5420074462890625,-0.830657958984375,-0.8374841751902462,-0.903836436610183,-0.0403594970703125
320,18.166,-0.0462799072265625,-0.5470733642578125,-0.81060791015625,-0.8288899133955655,-0.9045761711912712,-0.0462799072265625
321,18.216,-0.050750732421875,-0.556060791015625,-0.7803955078125,-0.8144064582651831,-0.9050788755079527,-0.050750732421875
322,18.266,-0.0354766845703125,-0.5303497314453125,-0.81182861328125,-0.8371874302464621,-0.9076401553972073,-0.0354766845703125
323,18.316,-0.0634918212890625,-0.5699615478515625,-0.81964111328125,-0.8210101723929455,-0.9099310321143832,-0.0634918212890625
324,18.366,-0.05828857421875,-0.5410308837890625,-0.855560302734375,-0.8451868146847686,-0.9108892639229123,-0.05828857421875
325,18.416,-0.0444183349609375,-0.53680419921875,-0.8657684326171875,-0.8498904824088626,-0.9118618944125274,-0.0444183349609375
326,18.465,-0.0619964599609375,-0.5501251220703125,-0.8285675048828125,-0.8330944430346492,-0.9124889035544903,-0.0619964599609375
327,18.515,-0.0450439453125,-0.519744873046875,-0.85528564453125,-0.8545816452297259,-0.9124373682671305,-0.0450439453125
328,18.565,-0.0486602783203125,-0.547882080078125,-0.82464599609375,-0.8329265526116975,-0.9146088200494729,-0.0486602783203125
329,18.615,-0.056915283203125,-0.54901123046875,-0.8459930419921875,-0.8388440248672351,-0.9176424567966093,-0.056915283203125
330,18.665,-0.0565032958984375,-0.5345916748046875,-0.8423614501953125,-0.8443221015796903,-0.9219702103728523,-0.0565032958984375
331,18.715,-0.0789642333984375,-0.5727081298828125,-0.8231201171875,-0.8208571252984161,-0.9248590276487765,-0.0789642333984375
332,18.764,-0.06842041015625,-0.5581512451171875,-0.85430908203125,-0.8371650132716972,-0.9242919597132725,-0.06842041015625
